onset	duration	run_number	trial_number	spatial_frequency	michelson_contrast	probe_orientation	response_correctness	probe_time	reaction_time
1032.256864	1.6000363	1	1	7	13	3	n/a	1032.656984	n/a
1033.856857	1.5998236	1	2	7	13	3	n/a	1034.256804	n/a
1035.45666	1.599698	1	3	7	13	3	n/a	1035.856573	n/a
1037.056471	1.5998226	1	4	7	13	3	n/a	1037.456416	n/a
1038.656275	1.5997872	1	5	1	12	2	1	1039.056116	0.402052
1040.256089	1.599811	1	6	1	11	1	1	1040.656039	0.301309
1041.855897	1.599868068	1	7	1	10	1	1	1042.255843	0.3013256
1043.455709	1.599808	1	8	1	9	2	1	1043.855643	0.4005105
1045.055512	1.5998167	1	9	1	8	2	1	1045.455466	0.2024159
1046.655319	1.5998059	1	10	1	7	1	0	1047.055257	0.3010992
1048.255109	1.5998148	1	11	1	6	2	0	1048.65505	0.401417
1049.854918	1.5998173	1	12	1	5	2	1	1050.254867	0.7026853
1051.454729	1.5998117	1	13	1	4	1	1	1051.854671	0.6010308
1053.054525	1.5998197	1	14	1	3	1	1	1053.454477	1.1045959
1054.654337	1.5998119	1	15	1	2	1	0	1055.054292	0.8003826
1056.254143	1.5997909	1	16	1	1	1	1	1056.654104	0.6012115
1057.853956	1.5998269	1	17	1	1	2	1	1058.25387	0.3011991
1059.453782	1.5998413	1	18	1	2	2	0	1059.853697	0.3011345
1061.053584	1.5998146	1	19	1	3	2	1	1061.453546	0.50072
1062.653412	1.599792	1	20	1	4	2	1	1063.053348	0.6005351
1064.25323	1.5997829	1	21	1	5	2	1	1064.65315	0.8004925
1065.853	1.5998323	1	22	1	6	1	1	1066.252961	0.5006225
1067.452661	1.5999707	1	23	1	7	2	1	1067.852768	0.6005554
1069.05262	1.5997943	1	24	1	8	2	1	1069.452568	0.5005078
1070.652442	1.5998099	1	25	1	9	1	1	1071.052376	0.40059
1072.252234	1.5998201	1	26	1	10	2	1	1072.65219	0.5005369
1073.852045	1.5998125	1	27	1	11	2	1	1074.251998	0.40059
1075.451792	1.5997256	1	28	1	12	2	1	1075.851803	0.5004781
1077.051652	1.5998226	1	29	2	12	2	1	1077.451609	0.5005559
1078.651461	1.5998323	1	30	2	11	2	1	1079.051315	0.6006457
1080.251272	1.5998193	1	31	2	10	1	1	1080.651219	0.5005426
1081.851077	1.599825	1	32	2	9	1	1	1082.25103	0.6005524
1083.450897	1.5998124	1	33	2	8	1	1	1083.85084	0.500618
1085.050589	1.5999274	1	34	2	7	1	1	1085.450654	0.5005427
1086.650441	1.5998764	1	35	2	6	2	1	1087.050457	0.5005587
1088.250308	1.5998337	1	36	2	5	1	1	1088.650262	0.5005652
1089.850114	1.5998187	1	37	2	4	1	1	1090.250072	0.6005402
1091.449928	1.5998096	1	38	2	3	1	0	1091.849874	0.500713
1093.04973	1.5998238	1	39	2	2	1	1	1093.449689	0.4005663
1094.649589	1.599774854	1	40	2	1	1	0	1095.049423	0.4007138
1096.249341	1.5998086	1	41	2	1	1	1	1096.649311	0.5004786
1097.849098	1.5998196	1	42	2	2	2	1	1098.24909	0.7006466
1099.448901	1.5998699	1	43	2	3	1	1	1099.8489	0.5005095
1101.048749	1.5998044	1	44	2	4	1	0	1101.448767	0.401068788
1102.648523	1.5998198	1	45	2	5	2	1	1103.048515	0.5006091
1104.248366	1.5998278	1	46	2	6	2	1	1104.648315	0.600554
1105.848143	1.5998569	1	47	2	7	1	1	1106.248132	0.6005077
1107.447946	1.5998834	1	48	2	8	1	1	1107.847936	0.6005921
1109.047804	1.5998229	1	49	2	9	1	1	1109.447762	0.6005696
1110.647618	1.5998135	1	50	2	10	1	1	1111.047543	0.4006288
1112.247381	1.5998006	1	51	2	11	2	1	1112.647366	0.500605
1113.847224	1.599860678	1	52	2	12	1	1	1114.247172	0.5006384
1115.447032	1.5996919	1	53	3	12	2	1	1115.846976	0.5005841
1117.046867	1.5997921	1	54	3	11	2	1	1117.446799	0.5005837
1118.646666	1.5997683	1	55	3	10	1	1	1119.046492	0.6006824
1120.246452	1.5998227	1	56	3	9	1	1	1120.646405	0.5002098
1121.846265	1.5996718	1	57	3	8	1	1	1122.246207	0.6005856
1123.446109	1.599796744	1	58	3	7	1	1	1123.845995	0.5006267
1125.045876	1.599823	1	59	3	6	1	0	1125.445785	0.6008271
1126.645659	1.5998463	1	60	3	5	2	1	1127.045634	0.6005688
1128.245492	1.5998204	1	61	3	4	1	0	1128.645444	0.8005749
1129.845114	1.6000037	1	62	3	3	1	1	1130.245207	0.5006496
1131.445102	1.5998211	1	63	3	2	2	1	1131.84505	0.4006092
1133.044912	1.5998193	1	64	3	1	1	1	1133.444869	0.400617
1134.644723	1.599866978	1	65	3	1	2	1	1135.04463	0.4006216
1136.244397	1.5999096	1	66	3	2	2	0	1136.644526	0.400553666
1137.844345	1.5997936	1	67	3	3	1	0	1138.244272	0.7006164
1139.444154	1.5998032	1	68	3	4	2	0	1139.844088	0.5006874
1141.043908	1.5998639	1	69	3	5	1	1	1141.443902	0.6005777
1142.643626	1.5997676	1	70	3	6	1	1	1143.04367	0.6006231
1144.243565	1.5997733	1	71	3	7	2	1	1144.643449	0.5006355
1145.84332	1.5996793	1	72	3	8	2	1	1146.243277	0.6006534
1147.443127	1.5998185	1	73	3	9	2	1	1147.843047	0.6008537
1149.042916	1.59992567	1	74	3	10	1	1	1149.442903	0.5005551
1150.642719	1.599825	1	75	3	11	1	1	1151.042648	0.6006948
1152.242454	1.599908	1	76	3	12	2	1	1152.642481	0.5007187
1153.842397	1.5996376	1	77	4	12	2	1	1154.24216	0.5007821
1155.442165	1.5998182	1	78	4	11	1	1	1155.842146	0.5004587
1157.042016	1.5997984	1	79	4	10	1	1	1157.441854	0.5002873
1158.641711	1.5999389	1	80	4	9	2	1	1159.041819	0.5005263861
1160.241681	1.599788032	1	81	4	8	1	1	1160.641597	0.5006039
1161.841432	1.599673	1	82	4	7	2	1	1162.241438	0.6004608761
1163.441109	1.5998786	1	83	4	6	2	1	1163.841174	0.8005813
1165.040976	1.5998613	1	84	4	5	2	0	1165.441021	0.7011062
1166.640865	1.599883012	1	85	4	4	1	0	1167.040758	0.6005896
1168.240684	1.599852646	1	86	4	3	1	1	1168.640631	0.500307
1169.840486	1.5997472	1	87	4	2	1	0	1170.240387	0.3004295
1171.44029	1.599860346	1	88	4	1	2	0	1171.84024	0.4007864
1173.040089	1.599783	1	89	4	1	1	0	1173.440044	0.3001329
1174.639917	1.5997692	1	90	4	2	2	0	1175.03985	0.4005896
1176.239672	1.5998467	1	91	4	3	1	0	1176.639654	0.4001948
1177.839487	1.5998576	1	92	4	4	2	0	1178.239385	0.3006431
1179.439321	1.5997877	1	93	4	5	1	0	1179.839324	0.3005073761
1181.039066	1.5998831	1	94	4	6	2	1	1181.439125	0.900548144
1182.63894	1.5998679	1	95	4	7	2	n/a	1183.038869	n/a
1184.238607	1.5998843	1	96	4	8	2	1	1184.638682	0.6005708
1185.8386	1.599702088	1	97	4	9	2	1	1186.238512	0.700542
1187.438181	1.5999594	1	98	4	10	1	1	1187.83826	0.6005068
1189.038113	1.5997712	1	99	4	11	2	1	1189.43805	0.5005645
1190.63789	1.599864	1	100	4	12	1	1	1191.037919	0.6001888
1192.237739	1.5996959	1	101	5	12	1	1	1192.637664	0.7005932
1193.837587	1.5998168	1	102	5	11	2	1	1194.237535	0.5006359
1195.437389	1.5998216	1	103	5	10	2	1	1195.837233	0.600408
1197.037244	1.599728932	1	104	5	9	1	1	1197.437045	0.6006152
1198.637001	1.5998124	1	105	5	8	2	1	1199.036967	0.6000808
1200.236651	1.5999674	1	106	5	7	2	1	1200.636614	0.8005894
1201.836606	1.5997859	1	107	5	6	2	1	1202.236445	0.8006645
1203.436416	1.5997788	1	108	5	5	2	0	1203.836334	0.6006369
1205.036188	1.5998568	1	109	5	4	2	1	1205.436125	0.6006449
1206.636025	1.5997556	1	110	5	3	2	0	1207.03597	0.4005741
1208.2359	1.5997674	1	111	5	2	1	0	1208.635771	0.300643
1209.835661	1.5998096	1	112	5	1	1	1	1210.235522	0.3006414
1211.435408	1.5998722	1	113	5	1	2	1	1211.835457	0.100434422
1213.035079	1.5999788	1	114	5	2	1	1	1213.435075	0.1008316
1214.634933	1.5999177	1	115	5	3	1	0	1215.034996	0.0006505000001
1216.234824	1.5998075	1	116	5	4	1	1	1216.634743	0.200701
1217.834544	1.5998848	1	117	5	5	2	1	1218.23465	0.3005907
1219.434437	1.5998057	1	118	5	6	2	0	1219.834449	0.4002527
1221.03429	1.5998003	1	119	5	7	2	1	1221.434206	0.6006584
1222.633965	1.5999319	1	120	5	8	1	1	1223.034017	0.6002729
1224.233853	1.5998888	1	121	5	9	1	1	1224.633908	0.6001124
1225.833661	1.5999122	1	122	5	10	2	1	1226.233489	0.5007218
1227.433385	1.5998174	1	123	5	11	1	1	1227.833441	0.5001188
1229.033228	1.5999571	1	124	5	12	1	1	1229.433246	0.500591
1230.633021	1.5999427	1	125	6	12	2	1	1231.033103	0.6001358
1232.232773	1.5999649	1	126	6	11	1	1	1232.632909	0.5004802
1233.832715	1.5998594	1	127	6	10	2	1	1234.232714	0.5005084
1235.432532	1.5998604	1	128	6	9	2	0	1235.832485	0.8006041
1237.032336	1.5997241	1	129	6	8	2	1	1237.432168	0.7007482
1238.632125	1.5998409	1	130	6	7	1	1	1239.032096	0.5005744
1240.232039	1.599764822	1	131	6	6	2	1	1240.631943	0.4005713
1241.831664	1.5999562	1	132	6	5	2	0	1242.231567	0.5003072
1243.431608	1.5996578	1	133	6	4	2	1	1243.831392	0.5002961
1245.031257	1.5998062	1	134	6	3	2	0	1245.431194	0.5002724
1246.631063	1.5997474	1	135	6	2	2	1	1247.031161	0.4006428
1248.230877	1.5997878	1	136	6	1	1	1	1248.630788	0.4003218
1249.830752	1.5997345	1	137	6	1	1	0	1250.230574	0.5006535
1251.43044	1.599924	1	138	6	2	2	0	1251.830392	0.400354
1253.030369	1.5996846	1	139	6	3	1	0	1253.430441	0.10065981
1254.630037	1.5998131	1	140	6	4	1	1	1255.030037	0.3006052
1256.229838	1.5999955	1	141	6	5	1	0	1256.629848	0.4007534
1257.829843	1.5998348	1	142	6	6	1	1	1258.229809	0.5005858
1259.429511	1.5999746	1	143	6	7	2	1	1259.82967	0.4005454321
1261.029477	1.5998382	1	144	6	8	2	0	1261.429433	0.8006533
1262.62928	1.5998241	1	145	6	9	1	n/a	1263.029275	n/a
1264.229089	1.5998633	1	146	6	10	1	n/a	1264.629048	n/a
1265.828916	1.5998051	1	147	6	11	2	n/a	1266.228836	n/a
1267.428712	1.5998055	1	148	6	12	1	1	1267.828657	0.5005851
1269.028509	1.5998357	1	149	7	13	3	n/a	1269.428481	n/a
1270.62832	1.5998266	1	150	7	13	3	n/a	1271.02827	n/a
1272.228124	1.5998297	1	151	7	13	3	n/a	1272.628004	n/a
1273.827888	1.5998246	1	152	7	13	3	n/a	1274.227934	n/a
