onset	duration	run_number	trial_number	spatial_frequency	michelson_contrast	probe_orientation	response_correctness	probe_time	reaction_time
2487.439255	1.5999939	1	1	7	13	3	n/a	2487.839226	n/a
2489.039245	1.5997986	1	2	7	13	3	n/a	2489.439185	n/a
2490.639052	1.5998104	1	3	7	13	3	n/a	2491.038903	n/a
2492.23885	1.5998147	1	4	7	13	3	n/a	2492.638804	n/a
2493.838657	1.5998285	1	5	6	12	2	1	2494.238592	0.5013749
2495.43831	1.5999861	1	6	6	11	2	1	2495.838432	0.5007437
2497.038288	1.5998296	1	7	6	10	2	1	2497.438082	0.5013229
2498.638099	1.599862433	1	8	6	9	1	1	2499.038042	0.6013035
2500.237905	1.5996177	1	9	6	8	2	1	2500.637843	0.6027863
2501.837678	1.5998311	1	10	6	7	1	0	2502.23765	0.5025582
2503.437512	1.5998207	1	11	6	6	2	0	2503.837428	0.3014897
2505.037281	1.599855	1	12	6	5	2	1	2505.437269	0.2013437
2506.637125	1.5998176	1	13	6	4	2	0	2507.037077	0.2011538
2508.236921	1.5998283	1	14	6	3	1	0	2508.636879	0.0006258999997
2509.836738	1.5998186	1	15	6	2	2	0	2510.236682	0.3010142
2511.436543	1.5998202	1	16	6	1	1	0	2511.836484	0.3005882
2513.036349	1.5998123	1	17	2	1	1	1	2513.436298	0.3046722
2514.636158	1.5998065	1	18	2	2	1	0	2515.036159	0.1007113
2516.235966	1.5998065	1	19	2	3	1	1	2516.635908	0.1007568
2517.835764	1.5998224	1	20	2	4	1	0	2518.235717	0.0011609
2519.435577	1.5996601	1	21	2	5	1	1	2519.835539	0.8005201
2521.035225	1.5999707	1	22	2	6	1	1	2521.435331	1.0010605
2522.635184	1.5998238	1	23	2	7	2	1	2523.035136	0.6007642
2524.234989	1.5998204	1	24	2	8	1	1	2524.634946	0.5007367
2525.834807	1.5998161	1	25	2	9	2	1	2526.23475	0.5005776
2527.434605	1.5998204	1	26	2	10	2	1	2527.834557	0.4005148
2529.034362	1.5998659	1	27	2	11	2	1	2529.434358	0.5004951
2530.634219	1.5998016	1	28	2	12	1	1	2531.03418	0.4004922
2532.234024	1.5998321	1	29	4	12	1	0	2532.633975	0.4005404
2533.833815	1.5997873	1	30	4	11	1	1	2534.233814	0.5005387
2535.43363	1.5998411	1	31	4	10	2	1	2535.833579	0.5005574
2537.033492	1.599747789	1	32	4	9	2	1	2537.433235	0.6006938
2538.633235	1.5998239	1	33	4	8	1	1	2539.033193	0.4005676
2540.233044	1.5997924	1	34	4	7	2	1	2540.632992	0.5005987
2541.832842	1.5998246	1	35	4	6	2	1	2542.232796	0.6005481
2543.432656	1.599839	1	36	4	5	2	0	2543.832599	0.5011479
2545.032481	1.5998155	1	37	4	4	2	0	2545.432424	0.5010743
2546.632284	1.5998137	1	38	4	3	1	0	2547.032229	0.4006311
2548.232084	1.5998174	1	39	4	2	1	1	2548.63204	0.4005736
2549.831888	1.5998238	1	40	4	1	2	1	2550.231849	0.5004835
2551.431696	1.59982	1	41	1	1	2	0	2551.831651	0.5005187
2553.031504	1.5998194	1	42	1	2	1	0	2553.431461	0.7004971
2554.631305	1.5997807	1	43	1	3	1	1	2555.031263	0.3005638
2556.231124	1.5998124	1	44	1	4	1	1	2556.631066	0.6005673
2557.830922	1.59979	1	45	1	5	1	1	2558.230872	0.7005135
2559.430697	1.5998545	1	46	1	6	1	1	2559.830681	1.0006417
2561.030536	1.5998228	1	47	1	7	1	1	2561.430485	0.7005736
2562.630297	1.5998674	1	48	1	8	2	1	2563.030314	0.5005411
2564.230149	1.5998147	1	49	1	9	1	1	2564.63014	0.6005224444
2565.829947	1.5998333	1	50	1	10	2	1	2566.229927	0.4001125
2567.429719	1.599861	1	51	1	11	2	0	2567.829714	0.3005793
2569.029564	1.5998266	1	52	1	12	2	1	2569.429522	0.6005081
2570.629409	1.599783622	1	53	2	12	2	1	2571.029373	0.5005043775
2572.2292	1.5998125	1	54	2	11	2	1	2572.629131	0.5005923
2573.828992	1.599861067	1	55	2	10	1	1	2574.228935	0.6005403
2575.42879	1.5998164	1	56	2	9	2	1	2575.828739	0.500262
2577.028619	1.5996031	1	57	2	8	1	1	2577.428554	0.5005319
2578.628222	1.6000029	1	58	2	7	2	1	2579.028358	0.8005834
2580.228207	1.5998178	1	59	2	6	2	1	2580.628121	0.6006286
2581.828017	1.5998075	1	60	2	5	1	1	2582.227969	0.5007342
2583.427809	1.5998166	1	61	2	4	1	1	2583.827764	0.6005271
2585.02761	1.5998288	1	62	2	3	1	1	2585.427526	0.600556
2586.627432	1.5997627	1	63	2	2	2	1	2587.027214	0.4007393
2588.227218	1.5998437	1	64	2	1	2	0	2588.627178	0.5006942
2589.827036	1.5998148	1	65	5	1	1	0	2590.226977	0.4005629
2591.426799	1.5998422	1	66	5	2	2	0	2591.826786	0.6005524
2593.026637	1.5998404	1	67	5	3	2	1	2593.426603	0.5005464
2594.626464	1.5998189	1	68	5	4	1	1	2595.026432	0.8004921
2596.226243	1.5998061	1	69	5	5	2	1	2596.626215	0.4005918
2597.826071	1.5998345	1	70	5	6	1	1	2598.22605	0.8005047
2599.425886	1.5998128	1	71	5	7	2	1	2599.825855	0.8005676
2601.025695	1.5997728	1	72	5	8	1	1	2601.425655	0.6005421
2602.62549	1.5996851	1	73	5	9	1	1	2603.025447	0.7005466
2604.22535	1.599770011	1	74	5	10	1	1	2604.625212	0.5006133
2605.825124	1.5998234	1	75	5	11	1	1	2606.225067	0.7005308
2607.424912	1.5998293	1	76	5	12	2	1	2607.824863	0.5005558
2609.024731	1.5998112	1	77	3	12	1	1	2609.424489	0.6007646
2610.624532	1.5998345	1	78	3	11	2	1	2611.024478	0.4005815
2612.224336	1.599805	1	79	3	10	1	1	2612.624291	0.5001004
2613.824141	1.5998136	1	80	3	9	1	1	2614.224045	0.6005619
2615.423897	1.5996684	1	81	3	8	1	1	2615.823895	0.5006639
2617.02375	1.5998237	1	82	3	7	2	1	2617.423732	0.5005245
2618.62355	1.5998223	1	83	3	6	1	1	2619.023531	0.600537
2620.223322	1.5998521	1	84	3	5	1	1	2620.623315	0.6005722
2621.823165	1.5998579	1	85	3	4	1	1	2622.223128	0.80055
2623.422983	1.5998146	1	86	3	3	2	1	2623.822927	0.3005357
2625.02269	1.5999069	1	87	3	2	1	1	2625.422739	0.3005678
2626.622559	1.5998397	1	88	3	1	2	1	2627.022484	0.6006177
2628.222287	1.599921	1	89	6	1	1	1	2628.622362	0.5005307
2629.822224	1.5997961	1	90	6	2	2	1	2630.222177	0.4005223
2631.421994	1.5998244	1	91	6	3	1	1	2631.821957	0.300579
2633.021815	1.5997976	1	92	6	4	2	1	2633.421781	0.4006595
2634.621454	1.5999746	1	93	6	5	1	1	2635.021541	0.7002774
2636.221474	1.599745422	1	94	6	6	1	0	2636.621365	0.8006356
2637.821214	1.5998153	1	95	6	7	1	1	2638.221163	0.600604
2639.421015	1.5998227	1	96	6	8	2	0	2639.820971	0.500594
2641.02083	1.5998171	1	97	6	9	2	1	2641.420604	0.6002743
2642.620633	1.5998131	1	98	6	10	2	1	2643.02057	0.6005143
2644.220449	1.5998331	1	99	6	11	1	1	2644.620423	0.6001106
2645.820262	1.5998506	1	100	6	12	2	1	2646.220212	0.5005539
2647.420112	1.599773655	1	101	5	12	2	1	2647.820006	0.5005534
2649.019884	1.5996854	1	102	5	11	2	1	2649.41979	0.4006062
2650.619676	1.5998167	1	103	5	10	2	1	2651.019627	0.5004645
2652.219485	1.5996801	1	104	5	9	2	1	2652.619435	0.5005662
2653.819292	1.5997742	1	105	5	8	1	1	2654.219241	0.5005403
2655.419099	1.5997321	1	106	5	7	2	1	2655.819093	0.5005154222
2657.018903	1.5998164	1	107	5	6	1	1	2657.418848	0.5005444
2658.618726	1.5997698	1	108	5	5	1	0	2659.018652	0.4005601
2660.218501	1.5998266	1	109	5	4	2	0	2660.618463	0.3005751
2661.818316	1.5996765	1	110	5	3	1	0	2662.218225	0.3006498
2663.418119	1.5997733	1	111	5	2	1	1	2663.818072	0.3006117
2665.017801	1.5998043	1	112	5	1	2	1	2665.417845	0.2006211
2666.617774	1.5997823	1	113	3	1	2	0	2667.017683	0.1006082
2668.217544	1.5996547	1	114	3	2	1	1	2668.617431	0.4001837
2669.817357	1.5998078	1	115	3	3	2	1	2670.2173	0.4006026
2671.417168	1.5996157	1	116	3	4	1	1	2671.816949	0.5008579
2673.016953	1.5998413	1	117	3	5	2	1	2673.416909	0.3005711
2674.616756	1.599871734	1	118	3	6	2	1	2675.016705	0.6005227
2676.216571	1.5998121	1	119	3	7	1	1	2676.616535	0.5006388
2677.816416	1.599780922	1	120	3	8	2	1	2678.216328	0.4005617
2679.416185	1.5998086	1	121	3	9	2	1	2679.816133	0.5006018
2681.015983	1.5998275	1	122	3	10	2	1	2681.415934	0.5005596
2682.615809	1.5997964	1	123	3	11	2	1	2683.015748	0.5005896
2684.215582	1.5998184	1	124	3	12	1	1	2684.615533	0.5005555
2685.815392	1.5998154	1	125	1	12	1	1	2686.215353	0.4005631
2687.4152	1.5998093	1	126	1	11	1	1	2687.815148	0.5005632
2689.015005	1.5998087	1	127	1	10	2	1	2689.41495	0.4001229
2690.614806	1.5998145	1	128	1	9	2	1	2691.01477	0.3005633
2692.214609	1.5998292	1	129	1	8	1	1	2692.614559	0.5005836
2693.814454	1.5997965	1	130	1	7	2	1	2694.214371	0.3006409
2695.414236	1.5998195	1	131	1	6	2	1	2695.814185	0.5005645
2697.014054	1.5998026	1	132	1	5	2	1	2697.413996	0.5005744
2698.613846	1.599808	1	133	1	4	2	1	2699.01381	0.6004969
2700.213662	1.5998138	1	134	1	3	2	1	2700.613568	0.7005663
2701.813462	1.5998175	1	135	1	2	2	0	2702.213401	0.3006282
2703.41327	1.5998055	1	136	1	1	2	0	2703.813217	0.3005772
2705.01311	1.599783122	1	137	4	1	1	0	2705.412948	0.1007058
2706.612873	1.5998383	1	138	4	2	1	1	2707.012831	0.2005879
2708.212702	1.5997991	1	139	4	3	1	0	2708.612642	0.3005459
2709.812489	1.5998258	1	140	4	4	1	1	2710.212436	0.2005341
2711.412302	1.599863867	1	141	4	5	1	0	2711.812246	0.3005913
2713.012098	1.5998511	1	142	4	6	1	1	2713.411877	0.2007973
2714.611911	1.5997953	1	143	4	7	1	1	2715.011685	0.4003038
2716.211542	1.5999516	1	144	4	8	2	1	2716.611501	0.5007464
2717.811468	1.5998657	1	145	4	9	2	1	2718.211469	0.6001246
2719.411321	1.5998263	1	146	4	10	2	1	2719.811276	0.6005558
2721.011146	1.599761	1	147	4	11	2	1	2721.411087	0.5006044
2722.610935	1.5998207	1	148	4	12	2	1	2723.010868	0.5005747
2724.210741	1.5998179	1	149	7	13	3	n/a	2724.610688	n/a
2725.810513	1.5998519	1	150	7	13	3	n/a	2726.210503	n/a
2727.410304	1.5998596	1	151	7	13	3	n/a	2727.810305	n/a
2729.010161	1.59982	1	152	7	13	3	n/a	2729.41011	n/a
