onset	duration	run_number	trial_number	spatial_frequency	michelson_contrast	probe_orientation	response_correctness	probe_time	reaction_time
592.0998069	1.599993516	9	1	7	13	3	n/a	592.4999153	n/a
593.6997799	1.5996687	9	2	7	13	3	n/a	594.0996525	n/a
595.2995575	1.608173669	9	3	7	13	3	n/a	595.6993595	n/a
596.9077143	1.599808732	9	4	7	13	3	n/a	597.307676	n/a
598.5158111	1.599845037	9	5	6	12	2	1	598.9157732	0.5022031274
600.1156441	1.907963785	9	6	6	11	2	1	600.8239124	0.6025459214
602.0237025	1.599841437	9	7	6	10	1	1	602.4236602	0.7024233067
603.6235373	1.666493358	9	8	6	9	1	1	604.0234924	0.8687058642
605.2900618	2.06627049	9	9	6	8	1	1	605.690016	0.5054448211
607.3562352	1.5998452	9	10	6	7	1	n/a	607.7562254	n/a
608.9560678	1.5998532	9	11	6	6	2	1	609.3560594	1.0006148
610.5559055	1.5997897	9	12	6	5	1	1	610.9558227	0.7014951
612.155687	1.5997807	9	13	6	4	1	0	612.5556225	0.3016135
613.7554672	1.6000182	9	14	6	3	1	1	614.1554124	0.3017722
615.6720567	1.7913551	9	15	6	2	1	0	616.0719009	0.3017478
617.4633925	1.6331602	9	16	6	1	1	1	617.8633502	0.4336886
619.0966842	1.5997273	9	17	2	1	1	0	619.4964628	0.4003941
620.6964043	1.5999332	9	18	2	2	2	0	621.0963323	0.4005966
622.2961499	2.2747231	9	19	2	3	1	0	622.6961226	1.0752068
624.5708456	1.59983	9	20	2	4	1	1	624.9709446	0.1002504
626.1706858	1.5998065	9	21	2	5	2	1	626.570616	0.4005297
627.7706244	1.8080105	9	22	2	6	2	1	628.37882	0.6004821
629.6120235	1.5999215	9	23	2	7	1	1	630.0119096	0.4006369
631.211875	1.5996948	9	24	2	8	1	1	631.611814	0.4002704
632.8115334	1.5998331	9	25	2	9	1	1	633.2116119	0.5001638
634.4114983	3.0495071	9	26	2	10	1	1	634.8281392	1.2254499
637.4777656	1.5997136	9	27	2	11	2	1	637.8776475	0.600862
639.0776026	2.0248298	9	28	2	12	1	1	639.4774311	0.5007248
641.1022356	1.5999264	9	29	4	12	2	1	641.5022253	0.5003008
642.7021556	1.5997075	9	30	4	11	2	1	643.1020451	0.6003942
644.301893	1.5999204	9	31	4	10	1	1	644.70179	0.6002451
645.9016328	1.5999944	9	32	4	9	1	1	646.3016414	0.8007555
647.5016226	1.5998184	9	33	4	8	1	1	647.9015715	0.5000631
649.1014267	1.5997749	9	34	4	7	1	1	649.5012691	0.5006217
650.7012726	1.5997668	9	35	4	6	1	1	651.1011894	0.6005052
652.3010367	1.5998083	9	36	4	5	2	1	652.7009856	0.6004682
653.9008454	1.9831	9	37	4	4	1	1	654.300642	1.0090698
656.1922365	1.5996432	9	38	4	3	1	0	656.5920205	0.2014194
657.7918657	1.6000409	9	39	4	2	2	0	658.1918207	0.3003476
659.3917505	1.5997975	9	40	4	1	1	0	659.7918439	0.2005942211
660.9917074	1.9913941	9	41	1	1	2	n/a	661.6331992	n/a
662.9828765	1.5999917	9	42	1	2	2	n/a	663.3830347	n/a
664.5828711	1.8579674	9	43	1	3	1	1	664.9828356	0.3001086
666.4409787	1.5998205	9	44	1	4	2	1	666.8409272	0.3006127
668.0408024	1.5997632	9	45	1	5	1	1	668.4407387	0.5005649
669.6405714	1.599906995	9	46	1	6	1	1	670.0405492	0.6005262
671.2403648	1.599858	9	47	1	7	2	1	671.6403076	0.5006231
672.8402768	1.774780863	9	48	1	8	2	1	673.2401648	0.5005873
674.6149989	1.9162986	9	49	1	9	2	1	675.0814676	0.5005694
676.5647832	1.5998157	9	50	1	10	1	1	676.96468	0.4006286
678.4894784	1.6831651	9	51	1	11	1	1	678.9728136	0.5005773
680.3976827	1.599780821	9	52	1	12	2	1	680.7974508	0.4007322
681.9972724	1.6000013	9	53	2	12	2	1	682.3973904	0.5001168
683.5972071	1.5998213	9	54	2	11	1	1	683.997206	0.4005943
685.1970581	1.599828	9	55	2	10	1	1	685.5970223	0.5005601
686.7969171	1.599779026	9	56	2	9	2	1	687.1968294	0.5005952
688.3966341	1.5998575	9	57	2	8	1	1	688.796632	0.5005682
689.9964848	1.5998228	9	58	2	7	2	1	690.3964677	0.400517
691.5962927	1.5998572	9	59	2	6	2	0	691.996091	0.2009221
693.1959218	1.5999591	9	60	2	5	2	1	693.596054	0.500526
694.7958954	1.5998275	9	61	2	4	1	1	695.1958567	0.3001506
696.3957079	1.5998183	9	62	2	3	1	0	696.7956158	0.4006139
697.9955337	1.599853858	9	63	2	2	1	1	698.3954724	0.3006976
699.5953198	1.5998621	9	64	2	1	2	1	699.9953187	0.3005518
701.1951241	1.5998199	9	65	5	1	1	1	701.5950853	0.3006364
702.7948991	1.5998091	9	66	5	2	2	1	703.1948899	0.3005698
704.3945803	1.5999825	9	67	5	3	1	1	704.7946982	0.300606
705.9945015	1.5996844	9	68	5	4	2	1	706.3945033	0.4005762
707.5943711	1.5997629	9	69	5	5	1	1	707.9943401	0.5004741
709.1941561	1.5998338	9	70	5	6	2	1	709.5941192	0.4006203
710.7939709	1.599608	9	71	5	7	2	0	711.1939215	0.3006369
712.3936917	1.5998668	9	72	5	8	2	1	712.7937285	0.6005233
713.9935704	1.5998228	9	73	5	9	2	1	714.3935295	0.6005272
715.59337	1.5997753	9	74	5	10	1	1	715.9933354	0.500541
717.1931665	1.5997919	9	75	5	11	2	1	717.5931056	0.5005963
718.7930149	1.5997913	9	76	5	12	1	1	719.1929254	0.6005596
720.3927938	1.5998161	9	77	3	12	1	1	720.7927054	0.4006142
721.9925578	1.5998444	9	78	3	11	2	1	722.3923965	0.500681
723.5922483	1.5999968	9	79	3	10	2	1	723.9923981	0.6004946
725.1922262	1.5997874	9	80	3	9	1	1	725.5921252	0.4006301
726.7919845	1.5998278	9	81	3	8	2	1	727.1919773	0.5005728
728.3918338	1.5998177	9	82	3	7	2	0	728.791787	0.400429
729.9916613	1.5998436	9	83	3	6	2	1	730.391428	0.7002669
731.5914076	1.5998116	9	84	3	5	2	1	731.991405	0.6000616
733.1912197	1.5998535	9	85	3	4	2	1	733.5912032	0.4005827
734.7910611	1.5998151	9	86	3	3	2	0	735.1910297	0.3006566
736.3908675	1.5998236	9	87	3	2	1	0	736.7908226	0.4006
737.9906755	1.599675	9	88	3	1	1	1	738.3906247	0.400606
739.5904509	1.5998596	9	89	6	1	2	1	739.9904285	0.4006265
741.190284	1.5997507	9	90	6	2	1	1	741.5902414	0.3008337
742.790094	1.5998172	9	91	6	3	1	0	743.190041	0.3005632
744.3899082	1.5998024	9	92	6	4	1	1	744.7898505	0.4005746
745.9897023	1.5998343	9	93	6	5	2	1	746.3896506	0.500575
747.5894659	1.5996998	9	94	6	6	2	0	747.9894623	0.6001121
749.1891579	1.5999793	9	95	6	7	2	1	749.5893159	0.2005642632
750.7891274	1.5998175	9	96	6	8	1	1	751.1890802	0.20053
752.388921	1.5997274	9	97	6	9	1	1	752.7887931	0.3006038
753.9885743	1.5999798	9	98	6	10	2	1	754.3886873	0.5001152
755.5885066	1.599749	9	99	6	11	1	1	755.9884892	0.6005114
757.1883481	1.5997718	9	100	6	12	1	1	757.5883126	0.6000517
758.7881549	1.5998065	9	101	5	12	2	1	759.1880565	0.5006575
760.3878572	1.5997597	9	102	5	11	1	1	760.7879082	0.5005635
761.9877708	1.5997988	9	103	5	10	2	1	762.3877148	0.5001946
763.5875405	1.5998421	9	104	5	9	2	1	763.9875131	0.6002516
765.1872001	1.599982	9	105	5	8	2	1	765.5873077	0.6005726
766.7871639	1.5998202	9	106	5	7	1	1	767.1871199	0.6001851
768.3868754	1.5997841	9	107	5	6	2	1	768.786927	0.6005247
769.9867834	1.5998075	9	108	5	5	2	0	770.3867336	0.4001281
771.5865904	1.5998141	9	109	5	4	2	1	771.9863737	0.3007396
773.1863946	1.5998223	9	110	5	3	2	0	773.5863461	0.3006588
774.7861616	1.5996746	9	111	5	2	2	0	775.1859739	0.300762
776.3860236	1.5998166	9	112	5	1	1	0	776.7860174	0.3005191
777.9858593	1.599762121	9	113	3	1	1	0	778.3858239	0.3005380264
779.5856267	1.5998192	9	114	3	2	2	0	779.9856311	0.1005705264
781.1854389	1.5998116	9	115	3	3	1	1	781.5853893	0.5005563
782.7852411	1.5998161	9	116	3	4	1	0	783.1852007	0.4005672
784.385051	1.5998146	9	117	3	5	1	0	784.7848239	0.4008125
785.9848613	1.5996454	9	118	3	6	1	1	786.3847104	0.6006089
787.5846631	1.5998204	9	119	3	7	2	1	787.9846193	0.5005368
789.1844625	1.5998159	9	120	3	8	2	1	789.5843688	0.5001485
790.7841187	1.5999333	9	121	3	9	1	1	791.184221	0.5005447
792.3840696	1.5998313	9	122	3	10	1	1	792.7840224	0.5005626
793.9837167	1.600015958	9	123	3	11	2	1	794.3838341	0.5005486
795.5835792	1.5997605	9	124	3	12	1	1	795.983635	0.5006156
797.1834881	1.599856879	9	125	1	12	2	1	797.5832812	0.4007173
798.783291	1.5998192	9	126	1	11	2	1	799.1831144	0.5006454
800.3830989	1.5998123	9	127	1	10	1	1	800.7830572	0.4005641
801.9827295	1.5999934	9	128	1	9	1	1	802.3828521	0.5005512
803.5826629	1.5998698	9	129	1	8	1	1	803.9826628	0.5005739
805.1825141	1.5998206	9	130	1	7	2	1	805.5824628	0.500552
806.7823179	1.5998153	9	131	1	6	1	1	807.182305	0.5005772
808.3821285	1.5998058	9	132	1	5	1	1	808.7819176	0.5007255
809.9819314	1.5998381	9	133	1	4	1	1	810.3818854	0.6001135
811.5817407	1.5997983	9	134	1	3	1	1	811.9815802	0.5006652
813.1813641	1.599946	9	135	1	2	1	0	813.5814819	0.4005741
814.7813471	1.5998092	9	136	1	1	1	1	815.1812858	0.400509
816.3811458	1.5998146	9	137	4	1	2	1	816.7811005	0.4001321
817.9809113	1.599808	9	138	4	2	2	1	818.3808969	0.400129
819.5807507	1.5998249	9	139	4	3	1	0	819.9807373	0.3005479
821.1805548	1.5998145	9	140	4	4	2	0	821.5805141	0.9004617
822.7803749	1.5998209	9	141	4	5	1	0	823.1802671	0.4006259
824.3800998	1.5998813	9	142	4	6	1	1	824.7801354	0.7005963
825.979893	1.5999045	9	143	4	7	2	1	826.379931	0.4005794
827.5797927	1.599858979	9	144	4	8	2	1	827.9797134	0.5005982
829.1796027	1.5996478	9	145	4	9	1	1	829.5795445	0.5006153
830.7794062	1.5997896	9	146	4	10	2	1	831.1793978	0.5005147421
832.3791859	1.5998575	9	147	4	11	1	1	832.7790556	0.6002872
833.9790598	1.599771742	9	148	4	12	2	1	834.3789607	0.400582
835.5788373	1.599796784	9	149	7	13	3	n/a	835.9787733	n/a
837.1786312	1.5998143	9	150	7	13	3	n/a	837.5785736	n/a
838.7784268	1.599834	9	151	7	13	3	n/a	839.1783823	n/a
840.3782402	1.5998114	9	152	7	13	3	n/a	840.7781892	n/a
