onset	duration	run_number	trial_number	bar_direction	bar_period	bar_step	stim_noise_ori	trial_offset	stim_stair_val	response_val	probe_time	reaction_time
3799.14983	1.5502529	1	1	9	1	1	3	3800.700083	n/a	n/a	n/a	n/a
3800.700083	1.5538775	1	2	9	1	2	3	3802.253961	n/a	n/a	n/a	n/a
3802.253961	1.5505897	1	3	9	1	3	3	3803.80455	n/a	n/a	n/a	n/a
3803.80455	1.5502008	1	4	9	1	4	3	3805.354751	n/a	n/a	n/a	n/a
3805.354751	1.5501171	1	5	9	1	5	3	3806.904868	n/a	n/a	n/a	n/a
3806.904868	1.5504597	1	6	9	1	6	3	3808.455328	n/a	n/a	n/a	n/a
3808.455328	1.5504546	1	7	9	1	7	3	3810.005782	n/a	n/a	n/a	n/a
3810.005782	1.5506752	1	8	9	1	8	3	3811.556458	n/a	n/a	n/a	n/a
3811.556458	1.5502217	1	9	9	1	9	3	3813.106679	n/a	n/a	n/a	n/a
3813.106679	1.550334	1	10	9	1	10	3	3814.657013	n/a	n/a	n/a	n/a
3814.657013	1.5501467	1	11	9	1	11	3	3816.20716	n/a	n/a	n/a	n/a
3816.20716	1.5500421	1	12	9	1	12	3	3817.757202	n/a	n/a	n/a	n/a
3817.757202	1.5502133	1	13	1	2	1	1	3819.307415	9	n/a	3818.2416	n/a
3819.307415	1.5504312	1	14	1	2	2	2	3820.857847	9	1	3819.791834	0.6835761
3820.857847	1.550124	1	15	1	2	3	1	3822.407971	9	1	3821.34216	0.9737929
3822.407971	1.5505125	1	16	1	2	4	1	3823.958483	9	1	3822.89241	0.9746624
3823.958483	1.5503329	1	17	1	2	5	2	3825.508816	8	1	3824.442999	0.9740804
3825.508816	1.5502026	1	18	1	2	6	1	3827.059019	8	1	3825.993349	0.9740105
3827.059019	1.5505448	1	19	1	2	7	2	3828.609564	8	1	3827.543526	0.8773755
3828.609564	1.5503441	1	20	1	2	8	1	3830.159908	7	1	3829.094133	0.780481
3830.159908	1.5501981	1	21	1	2	9	2	3831.710106	7	n/a	3830.644333	n/a
3831.710106	1.5502825	1	22	1	2	10	1	3833.260388	7	1	3832.194515	0.8786384
3833.260388	1.5504932	1	23	1	2	11	2	3834.810881	7	n/a	3833.745153	n/a
3834.810881	1.5504945	1	24	1	2	12	1	3836.361376	7	n/a	3835.295409	n/a
3836.361376	1.5505106	1	25	1	2	13	1	3837.911887	7	n/a	3836.846314	n/a
3837.911887	1.5505368	1	26	1	2	14	2	3839.462423	7	n/a	3838.396502	n/a
3839.462423	1.5502557	1	27	1	2	15	2	3841.012679	7	1	3839.946957	0.9743096
3841.012679	1.5500393	1	28	1	2	16	1	3842.562718	6	1	3841.496959	0.7801986
3842.562718	1.5505382	1	29	1	2	17	1	3844.113256	6	1	3843.047221	0.7804132
3844.113256	1.5501274	1	30	1	2	18	1	3845.663384	6	1	3844.597676	0.7803995
3845.663384	1.5503126	1	31	1	2	19	2	3847.213696	5	1	3846.147951	0.8781636
3847.213696	1.5502743	1	32	1	2	20	1	3848.763971	5	1	3847.698187	0.6831238
3848.763971	1.5506701	1	33	1	2	21	1	3850.314641	5	1	3849.248187	0.8773018
3850.314641	1.5502067	1	34	1	2	22	1	3851.864848	4	1	3850.798933	0.8776736
3851.864848	1.5502567	1	35	1	2	23	2	3853.415104	4	n/a	3852.349265	n/a
3853.415104	1.5503506	1	36	1	2	24	2	3854.965455	4	n/a	3853.899741	n/a
3854.965455	1.5505004	1	37	1	2	25	2	3856.515955	4	1	3855.449995	0.9744434
3856.515955	1.5500896	1	38	1	2	26	2	3858.066045	4	1	3857.000152	0.9741998
3858.066045	1.5501799	1	39	1	2	27	2	3859.616225	3	1	3858.550525	0.9747358
3859.616225	1.550115	1	40	1	2	28	2	3861.16634	3	0	3860.100751	0.8768575
3861.16634	1.5505203	1	41	1	2	29	1	3862.71686	4	1	3861.650839	0.8773731
3862.71686	1.5507955	1	42	1	2	30	1	3864.267656	4	0	3863.201734	0.7809622
3864.267656	1.5502278	1	43	1	2	31	1	3865.817883	5	1	3864.75215	0.7800529
3865.817883	1.5510529	1	44	1	2	32	1	3867.368936	5	0	3866.302373	0.4898372
3867.368936	1.5502914	1	45	9	3	1	3	3868.919228	n/a	n/a	n/a	n/a
3868.919228	1.5500605	1	46	9	3	2	3	3870.469288	n/a	n/a	n/a	n/a
3870.469288	1.5502763	1	47	9	3	3	3	3872.019564	n/a	n/a	n/a	n/a
3872.019564	1.5502493	1	48	9	3	4	3	3873.569814	n/a	n/a	n/a	n/a
3873.569814	1.5505125	1	49	9	3	5	3	3875.120326	n/a	n/a	n/a	n/a
3875.120326	1.5507345	1	50	9	3	6	3	3876.671061	n/a	n/a	n/a	n/a
3876.671061	1.5501253	1	51	9	3	7	3	3878.221186	n/a	n/a	n/a	n/a
3878.221186	1.5504434	1	52	9	3	8	3	3879.77163	n/a	n/a	n/a	n/a
3879.77163	1.5504407	1	53	9	3	9	3	3881.32207	n/a	n/a	n/a	n/a
3881.32207	1.5510662	1	54	9	3	10	3	3882.873136	n/a	n/a	n/a	n/a
3882.873136	1.5504239	1	55	9	3	11	3	3884.42356	n/a	n/a	n/a	n/a
3884.42356	1.5498375	1	56	9	3	12	3	3885.973398	n/a	n/a	n/a	n/a
3885.973398	1.5502433	1	57	3	4	1	2	3887.523641	6	n/a	3886.457922	n/a
3887.523641	1.5506428	1	58	3	4	2	1	3889.074284	6	n/a	3888.008125	n/a
3889.074284	1.5502907	1	59	3	4	3	2	3890.624575	6	n/a	3889.558814	n/a
3890.624575	1.5502324	1	60	3	4	4	2	3892.174807	6	n/a	3891.108844	n/a
3892.174807	1.5502031	1	61	3	4	5	2	3893.72501	6	n/a	3892.65944	n/a
3893.72501	1.5502586	1	62	3	4	6	2	3895.275269	6	n/a	3894.209495	n/a
3895.275269	1.5503634	1	63	3	4	7	2	3896.825632	6	0	3895.759557	0.8781317
3896.825632	1.550532	1	64	3	4	8	1	3898.376164	7	1	3897.31003	0.7806261
3898.376164	1.5505567	1	65	3	4	9	2	3899.926721	7	1	3898.860699	0.6834706
3899.926721	1.5501439	1	66	3	4	10	2	3901.476865	7	1	3900.411067	0.6835453
3901.476865	1.5501735	1	67	3	4	11	2	3903.027038	6	1	3901.961413	0.6835252
3903.027038	1.5504177	1	68	3	4	12	2	3904.577456	6	1	3903.511578	0.7805355
3904.577456	1.5501518	1	69	3	4	13	1	3906.127608	6	1	3905.061817	0.8779415
3906.127608	1.5500637	1	70	3	4	14	1	3907.677671	5	1	3906.612098	0.7809305
3907.677671	1.5504206	1	71	3	4	15	2	3909.228092	5	1	3908.162243	0.8779819
3909.228092	1.5507284	1	72	3	4	16	1	3910.77882	5	1	3909.712654	0.7812769
3910.77882	1.5509554	1	73	3	4	17	1	3912.329776	4	0	3911.263428	0.8803667
3912.329776	1.5499127	1	74	3	4	18	1	3913.879689	5	1	3912.814196	0.8777114
3913.879689	1.5507032	1	75	3	4	19	1	3915.430392	5	1	3914.36475	0.780888
3915.430392	1.550217	1	76	3	4	20	2	3916.980609	5	1	3915.914947	0.8780355
3916.980609	1.5504332	1	77	3	4	21	2	3918.531042	4	1	3917.465261	0.7802089
3918.531042	1.5503901	1	78	3	4	22	2	3920.081432	4	1	3919.015405	0.8779521
3920.081432	1.5502275	1	79	3	4	23	2	3921.631659	4	n/a	3920.565973	n/a
3921.631659	1.5503059	1	80	3	4	24	1	3923.181965	4	n/a	3922.116126	n/a
3923.181965	1.550843	1	81	3	4	25	2	3924.732808	4	1	3923.666473	0.9750263
3924.732808	1.5502207	1	82	3	4	26	2	3926.283029	3	0	3925.217337	0.9747679
3926.283029	1.5506549	1	83	3	4	27	1	3927.833684	4	0	3926.767709	0.9751334
3927.833684	1.5502477	1	84	3	4	28	2	3929.383932	5	n/a	3928.318024	n/a
3929.383932	1.5500971	1	85	3	4	29	1	3930.934029	5	1	3929.868318	0.974906
3930.934029	1.5499572	1	86	3	4	30	1	3932.483986	5	1	3931.418533	0.973532
3932.483986	1.5505523	1	87	3	4	31	2	3934.034538	5	1	3932.968533	0.9743434
3934.034538	1.550277	1	88	3	4	32	1	3935.584815	4	n/a	3934.519146	n/a
3935.584815	1.5507334	1	89	9	5	1	3	3937.135549	n/a	n/a	n/a	n/a
3937.135549	1.5504688	1	90	9	5	2	3	3938.686018	n/a	n/a	n/a	n/a
3938.686018	1.5505644	1	91	9	5	3	3	3940.236582	n/a	n/a	n/a	n/a
3940.236582	1.550501	1	92	9	5	4	3	3941.787083	n/a	n/a	n/a	n/a
3941.787083	1.5501958	1	93	9	5	5	3	3943.337279	n/a	n/a	n/a	n/a
3943.337279	1.550106	1	94	9	5	6	3	3944.887385	n/a	n/a	n/a	n/a
3944.887385	1.5506249	1	95	9	5	7	3	3946.43801	n/a	n/a	n/a	n/a
3946.43801	1.5501587	1	96	9	5	8	3	3947.988168	n/a	n/a	n/a	n/a
3947.988168	1.5505315	1	97	9	5	9	3	3949.5387	n/a	n/a	n/a	n/a
3949.5387	1.5499614	1	98	9	5	10	3	3951.088661	n/a	n/a	n/a	n/a
3951.088661	1.5502639	1	99	9	5	11	3	3952.638925	n/a	n/a	n/a	n/a
3952.638925	1.5507443	1	100	9	5	12	3	3954.189669	n/a	n/a	n/a	n/a
3954.189669	1.5503974	1	101	5	6	1	1	3955.740067	4	n/a	3954.674295	n/a
3955.740067	1.549937	1	102	5	6	2	1	3957.290004	4	1	3956.224321	0.6827337
3957.290004	1.5508085	1	103	5	6	3	2	3958.840812	4	1	3957.774773	0.7801085
3958.840812	1.5500359	1	104	5	6	4	2	3960.390848	4	0	3959.325146	0.6830765
3960.390848	1.5504697	1	105	5	6	5	2	3961.941318	5	1	3960.875266	0.683218
3961.941318	1.5507482	1	106	5	6	6	2	3963.492066	5	1	3962.42572	0.5869533
3963.492066	1.5506044	1	107	5	6	7	1	3965.04267	5	1	3963.976551	0.4901166
3965.04267	1.5508319	1	108	5	6	8	2	3966.593502	4	1	3965.527305	0.5867915
3966.593502	1.5503745	1	109	5	6	9	2	3968.143877	4	0	3967.077768	0.586941
3968.143877	1.5508303	1	110	5	6	10	2	3969.694707	5	1	3968.628475	0.6838017
3969.694707	1.5508203	1	111	5	6	11	1	3971.245528	5	1	3970.179469	0.6833889
3971.245528	1.5502259	1	112	5	6	12	2	3972.795753	5	1	3971.729938	0.6840273
3972.795753	1.5502766	1	113	5	6	13	1	3974.34603	4	1	3973.280169	0.6833927
3974.34603	1.5506986	1	114	5	6	14	1	3975.896729	4	1	3974.831073	0.7806501
3975.896729	1.5505121	1	115	5	6	15	1	3977.447241	4	1	3976.381338	0.9747245
3977.447241	1.5498035	1	116	5	6	16	2	3978.997044	3	n/a	3977.931576	n/a
3978.997044	1.5505263	1	117	5	6	17	1	3980.54757	3	n/a	3979.481727	n/a
3980.54757	1.5505098	1	118	5	6	18	2	3982.09808	3	n/a	3981.031922	n/a
3982.09808	1.5504206	1	119	5	6	19	1	3983.648501	3	n/a	3982.582371	n/a
3983.648501	1.5500435	1	120	5	6	20	2	3985.198544	3	n/a	3984.132814	n/a
3985.198544	1.5500906	1	121	5	6	21	2	3986.748635	3	n/a	3985.68293	n/a
3986.748635	1.5500705	1	122	5	6	22	2	3988.298705	3	n/a	3987.233004	n/a
3988.298705	1.5502168	1	123	5	6	23	1	3989.848922	3	n/a	3988.782929	n/a
3989.848922	1.5506411	1	124	5	6	24	1	3991.399563	3	n/a	3990.333408	n/a
3991.399563	1.5506557	1	125	5	6	25	1	3992.950219	3	n/a	3991.884135	n/a
3992.950219	1.550634	1	126	5	6	26	1	3994.500853	3	n/a	3993.434677	n/a
3994.500853	1.5499533	1	127	5	6	27	2	3996.050806	3	1	3994.98509	0.9745455
3996.050806	1.5504832	1	128	5	6	28	1	3997.60129	3	0	3996.535561	0.9747177
3997.60129	1.5510133	1	129	5	6	29	2	3999.152303	4	1	3998.086418	0.9742438
3999.152303	1.5510718	1	130	5	6	30	2	4000.703375	4	0	3999.6367	0.9752038
4000.703375	1.5503654	1	131	5	6	31	2	4002.25374	5	1	4001.187825	0.8771651
4002.25374	1.5503251	1	132	5	6	32	1	4003.804065	5	1	4002.738192	0.8766462
4003.804065	1.5501195	1	133	9	7	1	3	4005.354185	n/a	n/a	n/a	n/a
4005.354185	1.550412	1	134	9	7	2	3	4006.904597	n/a	n/a	n/a	n/a
4006.904597	1.5507658	1	135	9	7	3	3	4008.455362	n/a	n/a	n/a	n/a
4008.455362	1.5504626	1	136	9	7	4	3	4010.005825	n/a	n/a	n/a	n/a
4010.005825	1.5506281	1	137	9	7	5	3	4011.556453	n/a	n/a	n/a	n/a
4011.556453	1.5506354	1	138	9	7	6	3	4013.107089	n/a	n/a	n/a	n/a
4013.107089	1.5503507	1	139	9	7	7	3	4014.657439	n/a	n/a	n/a	n/a
4014.657439	1.5503943	1	140	9	7	8	3	4016.207834	n/a	n/a	n/a	n/a
4016.207834	1.5507452	1	141	9	7	9	3	4017.758579	n/a	n/a	n/a	n/a
4017.758579	1.5504967	1	142	9	7	10	3	4019.309075	n/a	n/a	n/a	n/a
4019.309075	1.5506769	1	143	9	7	11	3	4020.859752	n/a	n/a	n/a	n/a
4020.859752	1.550809	1	144	9	7	12	3	4022.410561	n/a	n/a	n/a	n/a
4022.410561	1.5504327	1	145	7	8	1	2	4023.960994	5	n/a	4022.895108	n/a
4023.960994	1.5512399	1	146	7	8	2	1	4025.512234	5	1	4024.445929	0.788541
4025.512234	1.5508324	1	147	7	8	3	1	4027.063066	4	1	4025.996828	0.9830387
4027.063066	1.5503067	1	148	7	8	4	2	4028.613373	4	n/a	4027.547526	n/a
4028.613373	1.5504904	1	149	7	8	5	2	4030.163863	4	n/a	4029.098018	n/a
4030.163863	1.5511865	1	150	7	8	6	2	4031.71505	4	n/a	4030.648708	n/a
4031.71505	1.5507597	1	151	7	8	7	1	4033.26581	4	n/a	4032.199608	n/a
4033.26581	1.5507086	1	152	7	8	8	2	4034.816518	4	n/a	4033.750133	n/a
4034.816518	1.5511597	1	153	7	8	9	2	4036.367678	4	n/a	4035.30147	n/a
4036.367678	1.5510957	1	154	7	8	10	2	4037.918774	4	n/a	4036.852234	n/a
4037.918774	1.5509805	1	155	7	8	11	1	4039.469754	4	n/a	4038.40352	n/a
4039.469754	1.5503297	1	156	7	8	12	1	4041.020084	4	1	4039.954201	0.9829277
4041.020084	1.5508197	1	157	7	8	13	2	4042.570904	4	1	4041.504719	0.9792618
4042.570904	1.5510758	1	158	7	8	14	2	4044.121979	3	1	4043.055923	0.8823391
4044.121979	1.5502662	1	159	7	8	15	2	4045.672246	3	n/a	4044.606268	n/a
4045.672246	1.5516838	1	160	7	8	16	1	4047.223929	3	n/a	4046.157169	n/a
4047.223929	1.5501835	1	161	7	8	17	2	4048.774113	3	1	4047.708363	0.9780007
4048.774113	1.5505543	1	162	7	8	18	2	4050.324667	3	n/a	4049.258673	n/a
4050.324667	1.5507186	1	163	7	8	19	1	4051.875386	3	n/a	4050.809157	n/a
4051.875386	1.5509878	1	164	7	8	20	1	4053.426374	3	n/a	4052.360155	n/a
4053.426374	1.5507303	1	165	7	8	21	1	4054.977104	3	n/a	4053.910881	n/a
4054.977104	1.5506506	1	166	7	8	22	1	4056.527754	3	n/a	4055.461831	n/a
4056.527754	1.5507549	1	167	7	8	23	2	4058.078509	3	n/a	4057.012163	n/a
4058.078509	1.5501477	1	168	7	8	24	1	4059.628657	3	0	4058.562894	n/a
4059.628657	1.5505465	1	169	7	8	25	2	4061.179204	4	0	4060.113297	0.2073216
4061.179204	1.5502873	1	170	7	8	26	1	4062.729491	5	n/a	4061.663723	n/a
4062.729491	1.5502313	1	171	7	8	27	1	4064.279722	5	n/a	4063.213938	n/a
4064.279722	1.5507163	1	172	7	8	28	2	4065.830439	5	n/a	4064.764265	n/a
4065.830439	1.5503526	1	173	7	8	29	1	4067.380791	5	n/a	4066.315011	n/a
4067.380791	1.5507265	1	174	7	8	30	1	4068.931518	5	1	4067.86529	n/a
4068.931518	1.550958	1	175	7	8	31	2	4070.482476	5	n/a	4069.416145	n/a
4070.482476	1.550256	1	176	7	8	32	1	4072.032732	5	n/a	4070.966981	n/a
4072.032732	1.5509655	1	177	9	9	1	3	4073.583697	n/a	n/a	n/a	n/a
4073.583697	1.5505992	1	178	9	9	2	3	4075.134296	n/a	n/a	n/a	n/a
4075.134296	1.5508224	1	179	9	9	3	3	4076.685119	n/a	n/a	n/a	n/a
4076.685119	1.5512321	1	180	9	9	4	3	4078.236351	n/a	n/a	n/a	n/a
4078.236351	1.5504317	1	181	9	9	5	3	4079.786782	n/a	n/a	n/a	n/a
4079.786782	1.5505807	1	182	9	9	6	3	4081.337363	n/a	n/a	n/a	n/a
4081.337363	1.5507107	1	183	9	9	7	3	4082.888074	n/a	n/a	n/a	n/a
4082.888074	1.5504338	1	184	9	9	8	3	4084.438508	n/a	n/a	n/a	n/a
4084.438508	1.5503978	1	185	9	9	9	3	4085.988905	n/a	n/a	n/a	n/a
4085.988905	1.5516455	1	186	9	9	10	3	4087.540551	n/a	n/a	n/a	n/a
4087.540551	1.5516936	1	187	9	9	11	3	4089.092245	n/a	n/a	n/a	n/a
4089.092245	1.5513521	1	188	9	9	12	3	4090.643597	n/a	n/a	n/a	n/a
