onset	duration	run_number	trial_number	spatial_frequency	michelson_contrast	probe_orientation	response_correctness	probe_time	reaction_time
5113.380815	1.5999667	3	1	7	13	3	n/a	5113.780914	n/a
5114.98076	1.5998395	3	2	7	13	3	n/a	5115.380718	n/a
5116.580581	1.5998169	3	3	7	13	3	n/a	5116.980543	n/a
5118.18039	1.5996523	3	4	7	13	3	n/a	5118.58033	n/a
5119.780201	1.599808	3	5	2	12	1	0	5120.180141	0.301365
5121.379996	1.5998273	3	6	2	11	2	1	5121.779953	0.4011991
5122.979813	1.5997994	3	7	2	10	2	1	5123.37975	0.6011849
5124.579603	1.5998133	3	8	2	9	2	1	5124.979556	0.6012105
5126.179407	1.5998215	3	9	2	8	1	1	5126.579358	0.5026418
5127.779224	1.5998543	3	10	2	7	2	1	5128.179169	0.704941
5129.379019	1.5997494	3	11	2	6	1	1	5129.778836	0.6012267
5130.978758	1.5998785	3	12	2	5	1	1	5131.378766	0.6011102
5132.578624	1.5998051	3	13	2	4	2	1	5132.978576	0.3014211
5134.178431	1.5998145	3	14	2	3	1	1	5134.578385	0.2011261
5135.778235	1.5997274	3	15	2	2	2	1	5136.178185	0.1007759
5137.378033	1.5996574	3	16	2	1	1	1	5137.777969	0.1053611
5138.977837	1.5998252	3	17	3	1	1	0	5139.377762	0.2011011
5140.577646	1.5998269	3	18	3	2	1	1	5140.977595	0.200832
5142.177359	1.5999003	3	19	3	3	2	1	5142.577397	0.3005235
5143.777257	1.5998102	3	20	3	4	2	0	5144.177206	0.4004611
5145.377056	1.5998128	3	21	3	5	1	0	5145.777053	0.4005299326
5146.976864	1.5998535	3	22	3	6	1	1	5147.376815	0.7004533
5148.576671	1.5998084	3	23	3	7	1	1	5148.976606	0.7004914
5150.176485	1.599798	3	24	3	8	2	1	5150.576418	0.6004683
5151.776261	1.599826	3	25	3	9	2	1	5152.176227	0.5005469
5153.376086	1.5997989	3	26	3	10	1	1	5153.776034	0.5006294
5154.97586	1.5998288	3	27	3	11	2	1	5155.375813	0.5005747
5156.575675	1.599658	3	28	3	12	2	1	5156.975624	0.7004544
5158.175482	1.5998129	3	29	5	12	1	1	5158.575431	0.4021365
5159.775297	1.5998148	3	30	5	11	1	0	5160.175223	0.4005883
5161.375091	1.599815	3	31	5	10	1	1	5161.77504	0.400506
5162.974895	1.599812	3	32	5	9	1	1	5163.374838	0.5004962
5164.574572	1.5999502	3	33	5	8	2	1	5164.974657	0.4005044
5166.174501	1.5998361	3	34	5	7	2	1	5166.574474	0.5000587
5167.774327	1.5997742	3	35	5	6	2	1	5168.174278	0.5004802
5169.373966	1.5999414	3	36	5	5	1	1	5169.774088	0.6999802
5170.973934	1.599821	3	37	5	4	2	1	5171.373874	0.6005298
5172.573733	1.5998288	3	38	5	3	1	1	5172.97367	0.4005703
5174.173537	1.5997507	3	39	5	2	1	0	5174.573491	0.301114
5175.773341	1.5998252	3	40	5	1	2	0	5176.173308	0.3005904
5177.373163	1.5997968	3	41	5	1	1	0	5177.773098	0.3006022
5178.972954	1.5997681	3	42	5	2	2	0	5179.372908	0.2007481
5180.572569	1.5999974	3	43	5	3	2	1	5180.972706	0.3005149
5182.172565	1.5998094	3	44	5	4	1	1	5182.572511	0.6005743
5183.77237	1.5997505	3	45	5	5	1	1	5184.172318	0.6005208
5185.372218	1.5997832	3	46	5	6	1	1	5185.77212	0.8005282
5186.971983	1.5997673	3	47	5	7	2	1	5187.371929	0.5006419
5188.571798	1.5998135	3	48	5	8	2	1	5188.97172	0.5005947
5190.171599	1.599812	3	49	5	9	2	1	5190.571545	0.500563
5191.77124	1.5999719	3	50	5	10	2	1	5192.17139	0.5005061105
5193.371201	1.5998149	3	51	5	11	1	1	5193.771157	0.600545
5194.971	1.5998176	3	52	5	12	1	1	5195.370948	0.4006109
5196.570812	1.599808	3	53	4	12	2	1	5196.970748	0.4000932
5198.170575	1.5998523	3	54	4	11	1	1	5198.570569	0.4005624
5199.770414	1.599858156	3	55	4	10	2	1	5200.170364	0.6000879
5201.370228	1.5998043	3	56	4	9	2	1	5201.770178	0.5005358
5202.96986	1.5999275	3	57	4	8	1	1	5203.369977	0.5005891
5204.569802	1.599827	3	58	4	7	1	1	5204.969755	0.6001811
5206.169619	1.5997836	3	59	4	6	2	1	5206.569614	0.500522
5207.769409	1.599835	3	60	4	5	2	0	5208.169358	0.4001456
5209.369229	1.5996283	3	61	4	4	2	1	5209.769173	0.3005764
5210.969021	1.59983	3	62	4	3	1	1	5211.36898	0.3005946
5212.568833	1.5998175	3	63	4	2	1	0	5212.968785	0.300589
5214.168487	1.5999647	3	64	4	1	1	1	5214.568587	0.2006609
5215.768441	1.5998068	3	65	6	1	1	0	5216.168401	0.3007066
5217.368266	1.5998169	3	66	6	2	2	1	5217.768223	0.2006011
5218.968062	1.5998378	3	67	6	3	2	1	5219.368019	0.3005624
5220.567876	1.5996995	3	68	6	4	1	1	5220.967637	0.6007446
5222.167515	1.5999859	3	69	6	5	1	1	5222.567625	0.7000766
5223.767486	1.5998208	3	70	6	6	2	1	5224.167442	0.6005293
5225.367297	1.5998099	3	71	6	7	1	1	5225.767236	0.6005635
5226.967096	1.5998183	3	72	6	8	2	1	5227.367049	0.5006403
5228.56693	1.5997795	3	73	6	9	1	1	5228.966842	0.4005994
5230.166693	1.5998277	3	74	6	10	2	1	5230.566655	0.4005574
5231.766413	1.5998968	3	75	6	11	1	1	5232.16646	0.3006987
5233.366294	1.5998337	3	76	6	12	1	1	5233.766258	0.5005516
5234.965988	1.5999343	3	77	3	12	2	1	5235.366047	0.6005536
5236.565915	1.5998314	3	78	3	11	1	1	5236.965855	0.4005693
5238.165712	1.5998306	3	79	3	10	1	1	5238.565662	0.4000765
5239.765556	1.5996167	3	80	3	9	2	1	5240.165297	0.500709
5241.365324	1.5997894	3	81	3	8	2	1	5241.765265	0.6004585
5242.965124	1.5998057	3	82	3	7	1	1	5243.364992	0.6007138
5244.564781	1.5999647	3	83	3	6	1	0	5244.964874	0.5005876
5246.164732	1.5998158	3	84	3	5	2	0	5246.564688	0.3014231
5247.764515	1.5998409	3	85	3	4	1	0	5248.164489	0.1006093
5249.364266	1.5997449	3	86	3	3	1	1	5249.764268	0.1006276
5250.964146	1.5996696	3	87	3	2	2	1	5251.364092	0.2005784
5252.563953	1.5998083	3	88	3	1	1	1	5252.963899	0.300578
5254.163759	1.5997887	3	89	4	1	2	1	5254.563621	0.2007413
5255.76339	1.5999567	3	90	4	2	1	1	5256.163491	0.100587
5257.363342	1.5998119	3	91	4	3	2	1	5257.763288	0.1006385
5258.963204	1.599756166	3	92	4	4	2	0	5259.3631	0.1006416
5260.562958	1.599807	3	93	4	5	1	1	5260.962918	0.5005907
5262.162765	1.5996375	3	94	4	6	2	1	5262.562728	0.5005414
5263.762573	1.599867056	3	95	4	7	2	1	5264.162529	0.7000729
5265.362297	1.599842	3	96	4	8	1	1	5265.762324	0.5005698
5266.962235	1.599731244	3	97	4	9	1	1	5267.362153	0.5006593
5268.562004	1.5996234	3	98	4	10	2	1	5268.961941	0.5005753
5270.161801	1.5997852	3	99	4	11	1	1	5270.561709	0.4005866
5271.761604	1.599813	3	100	4	12	1	1	5272.161565	0.5006788
5273.361419	1.5996306	3	101	1	12	2	1	5273.761219	0.4008505
5274.961202	1.5998207	3	102	1	11	2	0	5275.361147	0.4005883
5276.561018	1.599815	3	103	1	10	2	1	5276.960963	0.1006095
5278.160814	1.5998201	3	104	1	9	1	0	5278.560772	0.3005926
5279.760604	1.5996516	3	105	1	8	1	1	5280.160573	0.200594
5281.360421	1.5998124	3	106	1	7	1	0	5281.76031	0.2006572
5282.960222	1.5998218	3	107	1	6	2	0	5283.360149	0.2006345
5284.559998	1.5998637	3	108	1	5	1	0	5284.959986	0.1002
5286.159676	1.5999731	3	109	1	4	1	1	5286.559795	0.1005981
5287.759635	1.599829	3	110	1	3	1	0	5288.159593	0.1006053
5289.359455	1.5998046	3	111	1	2	2	0	5289.75941	0.2006239
5290.95924	1.5998274	3	112	1	1	2	1	5291.359201	0.1006062
5292.55892	1.5997993	3	113	1	1	1	1	5292.958835	0.2007613
5294.158868	1.5998018	3	114	1	2	2	1	5294.558808	0.1005921
5295.758658	1.5998266	3	115	1	3	1	1	5296.158614	0.1007532
5297.358471	1.5998106	3	116	1	4	1	0	5297.758417	0.1005839
5298.958305	1.599789122	3	117	1	5	1	1	5299.358221	0.2005983
5300.558074	1.5998455	3	118	1	6	2	1	5300.958021	0.7005429
5302.157888	1.5998099	3	119	1	7	2	1	5302.557844	0.8004976
5303.757692	1.5997901	3	120	1	8	2	0	5304.157699	0.9004298769
5305.357305	1.5999758	3	121	1	9	2	1	5305.757426	1.1004608
5306.957277	1.5998195	3	122	1	10	2	0	5307.357192	0.6006011
5308.556947	1.5999542	3	123	1	11	2	1	5308.957034	0.4005425
5310.156931	1.5997707	3	124	1	12	1	1	5310.556833	0.2005934
5311.756685	1.5996619	3	125	6	12	1	1	5312.15645	0.1007898
5313.356494	1.5998132	3	126	6	11	1	1	5313.756459	0.5005896
5314.956304	1.5998265	3	127	6	10	1	1	5315.356246	0.5005551
5316.556126	1.5998159	3	128	6	9	1	1	5316.956074	0.5005275
5318.155928	1.5998124	3	129	6	8	1	1	5318.555831	0.6005862
5319.755731	1.5998235	3	130	6	7	1	1	5320.155674	0.6005384
5321.355567	1.599779266	3	131	6	6	1	1	5321.755484	0.6005788
5322.955334	1.5996654	3	132	6	5	2	1	5323.355123	0.3007274
5324.555149	1.5998012	3	133	6	4	1	0	5324.955086	0.8005243
5326.15494	1.5998227	3	134	6	3	1	1	5326.554893	0.6005884
5327.754741	1.5998275	3	135	6	2	2	0	5328.154674	0.6005986
5329.354517	1.5998455	3	136	6	1	1	0	5329.75451	0.3000866
5330.954356	1.5998181	3	137	2	1	1	1	5331.354299	0.2002292
5332.554148	1.5998319	3	138	2	2	2	1	5332.954085	0.3006148
5334.153962	1.5996497	3	139	2	3	2	1	5334.553741	0.1007597
5335.753624	1.5999471	3	140	2	4	1	0	5336.153708	0.3005766
5337.35356	1.5996578	3	141	2	5	2	0	5337.753511	0.2000995
5338.953364	1.5998184	3	142	2	6	1	0	5339.353252	0.7006035
5340.553171	1.5998161	3	143	2	7	1	1	5340.953147	1.1004694
5342.152982	1.5998085	3	144	2	8	1	1	5342.552932	0.8005241
5343.752778	1.5998195	3	145	2	9	1	1	5344.152732	0.9004662
5345.352601	1.599839734	3	146	2	10	2	1	5345.752529	0.6005776
5346.952313	1.5998224	3	147	2	11	2	1	5347.35234	0.7000777
5348.552156	1.5998639	3	148	2	12	1	1	5348.952143	0.4005837
5350.152039	1.599781366	3	149	7	13	3	n/a	5350.55179	n/a
5351.751807	1.599854856	3	150	7	13	3	n/a	5352.151741	n/a
5353.35161	1.5997727	3	151	7	13	3	n/a	5353.751604	n/a
5354.951395	1.5998114	3	152	7	13	3	n/a	5355.351352	n/a
