onset	duration	run_number	trial_number	spatial_frequency	michelson_contrast	probe_orientation	response_correctness	probe_time	reaction_time
3667.046609	1.600118447	5	1	7	13	3	n/a	3667.446586	n/a
3668.646765	1.600241815	5	2	7	13	3	n/a	3669.046825	n/a
3670.247048	1.600242734	5	3	7	13	3	n/a	3670.647106	n/a
3671.847325	1.600253637	5	4	7	13	3	n/a	3672.247391	n/a
3673.447578	1.600160297	5	5	6	12	2	1	3673.847648	0.5025019732
3675.047769	1.600259481	5	6	6	11	2	1	3675.44783	0.6024744504
3676.648037	1.60026501	5	7	6	10	1	1	3677.048116	0.5017419163
3678.248323	1.600104153	5	8	6	9	1	1	3678.648245	0.503074687
3679.848448	1.600227559	5	9	6	8	2	0	3680.248506	0.6031619781
3681.448692	1.600228151	5	10	6	7	2	1	3681.848745	0.7028831318
3683.048953	1.600222933	5	11	6	6	1	1	3683.448986	0.5036682667
3684.649189	1.600220346	5	12	6	5	2	1	3685.049241	0.6039435618
3686.249412	1.600251267	5	13	6	4	1	1	3686.649477	0.4060042139
3687.849675	1.600208541	5	14	6	3	2	1	3688.249735	0.2043790074
3689.449901	1.600236259	5	15	6	2	2	0	3689.84997	0.1030029895
3691.050158	1.600215089	5	16	6	1	2	1	3691.45021	0.1030890545
3692.650405	1.600267575	5	17	2	1	1	1	3693.050459	0.2024368179
3694.250693	1.60026914	5	18	2	2	1	0	3694.650693	0.203241209
3695.85098	1.600241637	5	19	2	3	1	0	3696.25105	0.4010314846
3697.451232	1.600220442	5	20	2	4	2	0	3697.851299	0.400521826
3699.051352	1.600220224	5	21	2	5	1	0	3699.451451	0.4029268854
3700.651591	1.600239171	5	22	2	6	2	0	3701.05167	0.5031677326
3702.251839	1.600239693	5	23	2	7	2	1	3702.651909	0.7023685976
3703.852077	1.600248772	5	24	2	8	2	1	3704.252162	0.7026713911
3705.452331	1.600216971	5	25	2	9	2	1	3705.852378	0.7025705968
3707.052587	1.600222425	5	26	2	10	1	1	3707.452656	0.6025411252
3708.652821	1.600239361	5	27	2	11	1	1	3709.052913	0.5021457431
3710.253116	1.600227234	5	28	2	12	2	1	3710.65314	0.4021859
3711.853407	1.600226304	5	29	4	12	2	1	3712.253471	0.5014299374
3713.453651	1.600244637	5	30	4	11	2	1	3713.853711	0.5009561724
3715.053901	1.600243881	5	31	4	10	2	1	3715.45396	0.6005641789
3716.654016	1.600215083	5	32	4	9	1	1	3717.054071	0.5029091976
3718.254236	1.600261214	5	33	4	8	1	1	3718.654311	0.6033008399
3719.8545	1.600260641	5	34	4	7	2	1	3720.254576	0.4012136383
3721.454755	1.600226341	5	35	4	6	2	1	3721.854818	0.5029391496
3723.055004	1.60022967	5	36	4	5	1	1	3723.455051	0.6022739521
3724.655235	1.600246887	5	37	4	4	2	0	3725.055308	0.7029860269
3726.255494	1.600234129	5	38	4	3	2	1	3726.655552	0.7027041074
3727.855739	1.600222107	5	39	4	2	2	0	3728.255811	0.5024725171
3729.455974	1.600261547	5	40	4	1	1	0	3729.856051	0.7024403838
3731.056249	1.600274705	5	41	1	1	2	0	3731.456311	0.6019669342
3732.656525	1.600272369	5	42	1	2	1	0	3733.056589	0.4016937171
3734.256815	1.600227771	5	43	1	3	2	0	3734.65687	0.5005608073
3735.856918	1.600235511	5	44	1	4	1	1	3736.256997	0.8029309155
3737.457172	1.600215499	5	45	1	5	2	1	3737.857322	0.8027386886
3739.057531	1.600113846	5	46	1	6	1	1	3739.457492	0.7031635854
3740.657666	1.600287589	5	47	1	7	2	1	3741.057751	0.7027431025
3742.257931	1.600218803	5	48	1	8	2	1	3742.657964	0.6030023903
3743.858159	1.600240949	5	49	1	9	1	1	3744.258237	0.5029043667
3745.458393	1.600246532	5	50	1	10	2	1	3745.858461	0.5025145895
3747.058648	1.600222524	5	51	1	11	2	1	3747.458808	0.6022305309
3748.658892	1.600218324	5	52	1	12	2	1	3749.058954	0.5024676261
3750.259123	1.600323135	5	53	2	12	2	1	3750.659201	0.5024200196
3751.85936	1.600245507	5	54	2	11	1	1	3752.259439	0.4025205545
3753.459603	1.600266314	5	55	2	10	1	1	3753.859685	0.5025969667
3755.059882	1.600274186	5	56	2	9	2	1	3755.459951	0.5016173805
3756.660164	1.600266763	5	57	2	8	1	1	3757.060245	0.401244452
3758.260445	1.600238234	5	58	2	7	2	1	3758.66052	0.500817726
3759.860577	1.600234089	5	59	2	6	2	1	3760.260624	0.6026315561
3761.460833	1.600215298	5	60	2	5	2	1	3761.860871	0.7028147383
3763.061079	1.600229365	5	61	2	4	2	1	3763.461121	1.002549155
3764.661396	1.600151086	5	62	2	3	2	0	3765.061367	0.7026613724
3766.261545	1.600231794	5	63	2	2	1	1	3766.661623	0.8021962196
3767.861794	1.600241194	5	64	2	1	1	0	3768.261867	0.9017815025
3769.462043	1.600216217	5	65	5	1	1	1	3769.862108	0.9027956667
3771.062297	1.600217071	5	66	5	2	1	0	3771.46235	0.8024804252
3772.662542	1.600214615	5	67	5	3	1	1	3773.062601	0.7024505244
3774.262776	1.600234636	5	68	5	4	1	0	3774.66282	0.7027759488
3775.86301	1.600228563	5	69	5	5	2	0	3776.263091	0.6024575326
3777.463249	1.600252864	5	70	5	6	2	1	3777.863313	0.7025576602
3779.063488	1.60023687	5	71	5	7	2	1	3779.463572	0.7028506139
3780.663732	1.600273016	5	72	5	8	1	1	3781.063824	0.5020796537
3782.264037	1.600274063	5	73	5	9	2	1	3782.664117	0.6015171911
3783.864324	1.600246694	5	74	5	10	1	1	3784.264379	0.400957626
3785.464586	1.600106789	5	75	5	11	1	1	3785.864634	0.4024922781
3787.064711	1.600212088	5	76	5	12	2	1	3787.464767	0.4027156423
3788.664949	1.600228736	5	77	3	12	1	1	3789.065005	0.5029890976
3790.265174	1.600260091	5	78	3	11	2	1	3790.665261	0.4027037602
3791.865431	1.600240444	5	79	3	10	1	1	3792.265479	0.5024111618
3793.465688	1.600248624	5	80	3	9	2	1	3793.865741	0.5029351895
3795.065947	1.600260511	5	81	3	8	2	1	3795.466013	0.4019269935
3796.666226	1.600267998	5	82	3	7	2	1	3797.066308	0.5013960358
3798.266521	1.600237924	5	83	3	6	2	1	3798.666585	0.5009103024
3799.866755	1.600242511	5	84	3	5	2	1	3800.266825	0.5010462496
3801.467	1.600095198	5	85	3	4	1	1	3801.866916	0.4028326651
3803.067108	1.600232759	5	86	3	3	1	1	3803.467176	0.6032705001
3804.667345	1.600268775	5	87	3	2	1	0	3805.067408	0.5026831228
3806.267596	1.600275557	5	88	3	1	2	0	3806.667669	0.4025223212
3807.867878	1.600283946	5	89	6	1	1	0	3808.267963	0.3022563513
3809.468173	1.600261558	5	90	6	2	1	1	3809.868256	0.4011555699
3811.068467	1.600215011	5	91	6	3	2	1	3811.46853	0.3009432496
3812.668701	1.600105903	5	92	6	4	2	0	3813.06877	0.3030137903
3814.268815	1.600227011	5	93	6	5	1	0	3814.669009	0.3029489951
3815.869065	1.600228493	5	94	6	6	2	0	3816.269115	0.3027511277
3817.469302	1.600254667	5	95	6	7	1	0	3817.869347	0.4025103163
3819.069573	1.600215536	5	96	6	8	1	1	3819.469633	0.4023410179
3820.669811	1.600233753	5	97	6	9	2	0	3821.069869	0.5023751252
3822.27006	1.600219711	5	98	6	10	2	1	3822.670107	0.6023330781
3823.870294	1.600227689	5	99	6	11	2	1	3824.270364	0.5025561602
3825.470551	1.600223653	5	100	6	12	1	0	3825.870598	0.4025251781
3827.070783	1.600231489	5	101	5	12	2	1	3827.470847	0.5005561659
3828.671016	1.600258241	5	102	5	11	2	1	3829.071084	0.7024035545
3830.271265	1.600236377	5	103	5	10	1	1	3830.671331	0.402068813
3831.871506	1.600231024	5	104	5	9	2	1	3832.271676	0.5021950317
3833.471748	1.600240966	5	105	5	8	1	1	3833.871822	0.5025216017
3835.071991	1.600340076	5	106	5	7	1	1	3835.472064	0.7027148017
3836.672227	1.600252824	5	107	5	6	2	0	3837.072289	0.7021855252
3838.272498	1.600221307	5	108	5	5	2	1	3838.672549	0.5025671407
3839.872724	1.60028154	5	109	5	4	1	1	3840.272807	0.4005978935
3841.473021	1.600270198	5	110	5	3	2	1	3841.873095	0.3017211594
3843.073315	1.600232536	5	111	5	2	1	1	3843.473369	0.3005031016
3844.673549	1.60010355	5	112	5	1	1	0	3845.073489	0.203042609
3846.273673	1.600243865	5	113	3	1	1	1	3846.673763	0.002417395978
3847.873925	1.600234782	5	114	3	2	2	1	3848.274002	0.002213535811
3849.474276	1.600133719	5	115	3	3	1	1	3849.874235	0.4024871602
3851.074428	1.600234036	5	116	3	4	2	1	3851.474494	0.4027288122
3852.674671	1.600224806	5	117	3	5	2	1	3853.074727	0.7012883301
3854.274873	1.600259009	5	118	3	6	1	1	3854.674969	0.5027630252
3855.875148	1.600231219	5	119	3	7	2	1	3856.275203	0.5026041252
3857.475394	1.600222354	5	120	3	8	1	1	3857.875538	0.4023556106
3859.075734	1.600132666	5	121	3	9	2	1	3859.475703	0.7026161252
3860.67588	1.600302714	5	122	3	10	2	1	3861.075947	0.5025666374
3862.276129	1.600224776	5	123	3	11	1	1	3862.676177	0.5026321309
3863.876371	1.600240249	5	124	3	12	2	1	3864.276416	0.4027525781
3865.4766	1.600243884	5	125	1	12	1	1	3865.876673	0.5023446309
3867.076807	1.600378157	5	126	1	11	1	1	3867.476915	0.601126583
3868.677093	1.600207405	5	127	1	10	2	1	3869.077274	0.6026852903
3870.277331	1.600223441	5	128	1	9	2	1	3870.677399	0.7027466318
3871.877589	1.600235777	5	129	1	8	2	1	3872.277625	0.6028697732
3873.477824	1.600245871	5	130	1	7	1	1	3873.877886	0.7026425366
3875.078127	1.600164808	5	131	1	6	2	1	3875.478127	0.8006917252
3876.678311	1.600213424	5	132	1	5	1	1	3877.07837	0.5027850545
3878.278559	1.60022217	5	133	1	4	1	1	3878.678616	0.6025745252
3879.87879	1.600247544	5	134	1	3	1	0	3880.278857	0.3010619586
3881.479039	1.60023343	5	135	1	2	1	1	3881.879109	0.2020647171
3883.079291	1.600285498	5	136	1	1	2	n/a	3883.479368	n/a
3884.679583	1.600274286	5	137	4	1	2	0	3885.079667	0.2012987577
3886.27987	1.600155454	5	138	4	2	1	0	3886.679925	0.2008780309
3887.880028	1.600292107	5	139	4	3	1	1	3888.280106	0.3020631228
3889.480298	1.600271393	5	140	4	4	1	0	3889.880388	0.3013575821
3891.080667	1.60015283	5	141	4	5	1	1	3891.480686	0.300520026
3892.680719	1.600243637	5	142	4	6	1	1	3893.080789	0.3006432968
3894.28097	1.600218847	5	143	4	7	1	1	3894.681042	0.5027340261
3895.881216	1.600229906	5	144	4	8	2	1	3896.281272	0.6022659781
3897.481475	1.600214208	5	145	4	9	1	1	3897.881517	0.5025614561
3899.081701	1.600247624	5	146	4	10	1	1	3899.48177	0.5024747724
3900.681946	1.600226129	5	147	4	11	2	1	3901.081997	0.5027960724
3902.282229	1.600187836	5	148	4	12	1	1	3902.682252	0.5026886545
3903.88244	1.600237933	5	149	7	13	3	n/a	3904.282507	n/a
3905.482665	1.600262239	5	150	7	13	3	n/a	3905.882732	n/a
3907.082948	1.60025456	5	151	7	13	3	n/a	3907.483026	n/a
3908.683248	1.600250644	5	152	7	13	3	n/a	3909.083294	n/a
