onset	duration	run_number	trial_number	spatial_frequency	michelson_contrast	probe_orientation	response_correctness	probe_time	reaction_time
607190.3027	1.600175652	4	1	7	13	3	n/a	607190.7027	n/a
607191.9029	1.600240309	4	2	7	13	3	n/a	607192.303	n/a
607193.5032	1.600242755	4	3	7	13	3	n/a	607193.9032	n/a
607195.1034	1.600233926	4	4	7	13	3	n/a	607195.5035	n/a
607196.7037	1.600226841	4	5	6	12	2	1	607197.1037	0.4117388864
607198.3039	1.600249572	4	6	6	11	1	1	607198.704	0.5030125938
607199.9041	1.600233714	4	7	6	10	1	1	607200.3042	0.5030890902
607201.5044	1.600225464	4	8	6	9	1	1	607201.9045	0.6031377902
607203.1047	1.600155746	4	9	6	8	2	0	607203.5047	0.6028331261
607204.7049	1.600316667	4	10	6	7	1	0	607205.1049	0.3030179185
607206.3051	1.600249979	4	11	6	6	1	1	607206.7052	0.3032294865
607207.9055	1.600124506	4	12	6	5	1	1	607208.3054	0.3031152505
607209.5056	1.600269184	4	13	6	4	1	1	607209.9057	0.3020854293
607211.1059	1.600265244	4	14	6	3	1	1	607211.506	0.40082301
607212.7062	1.600232923	4	15	6	2	2	1	607213.1063	0.4016095699
607214.3063	1.600294171	4	16	6	1	1	1	607214.7064	0.4025488808
607215.9066	1.600274619	4	17	2	1	1	0	607216.3067	0.9019867559
607217.5069	1.600281748	4	18	2	2	1	1	607217.907	0.9011955271
607219.1072	1.6002241	4	19	2	3	1	1	607219.5072	0.9011106683
607220.7073	1.60022414	4	20	2	4	1	1	607221.1074	0.7026701128
607222.3075	1.600228162	4	21	2	5	2	1	607222.7076	0.7034465544
607223.9078	1.600217581	4	22	2	6	1	1	607224.3079	0.7026185732
607225.5081	1.600225162	4	23	2	7	1	1	607225.9081	0.602537494
607227.1083	1.600253536	4	24	2	8	1	1	607227.5083	0.5027172545
607228.7086	1.600190324	4	25	2	9	1	1	607229.1086	0.5026791826
607230.3088	1.600233224	4	26	2	10	1	1	607230.7088	0.5027761088
607231.909	1.600269729	4	27	2	11	2	1	607232.3091	0.5018140635
607233.5093	1.600250906	4	28	2	12	2	1	607233.9094	0.5010898855
607235.1096	1.600230832	4	29	4	12	2	1	607235.5097	0.5011374908
607236.7097	1.600225828	4	30	4	11	1	1	607237.1098	0.5028761885
607238.31	1.6002298	4	31	4	10	1	1	607238.71	0.4029672074
607239.9102	1.600220647	4	32	4	9	2	1	607240.3103	0.5028575034
607241.5105	1.600223076	4	33	4	8	2	1	607241.9105	0.5028037356
607243.1107	1.600235272	4	34	4	7	2	1	607243.5108	0.6028389676
607244.711	1.600233691	4	35	4	6	1	1	607245.111	0.5024528317
607246.3112	1.600231753	4	36	4	5	2	1	607246.7113	0.6034207129
607247.9114	1.600232049	4	37	4	4	1	1	607248.3115	0.6028193168
607249.5117	1.600249631	4	38	4	3	1	0	607249.9118	0.4029250582
607251.112	1.600247465	4	39	4	2	2	0	607251.512	0.5022578123
607252.7123	1.600259346	4	40	4	1	1	0	607253.1123	0.5010522344
607254.3125	1.600222938	4	41	1	1	1	1	607254.7126	0.600999123
607255.9126	1.600224213	4	42	1	2	2	1	607256.3127	0.5012002512
607257.5129	1.600262485	4	43	1	3	2	0	607257.913	0.7034965808
607259.1132	1.600209675	4	44	1	4	2	1	607259.5132	1.002714311
607260.7134	1.600216696	4	45	1	5	2	1	607261.1135	0.902910162
607262.3136	1.60021946	4	46	1	6	2	1	607262.7137	1.002679083
607263.9139	1.6002121	4	47	1	7	2	1	607264.3139	0.6028375621
607265.5141	1.600221949	4	48	1	8	1	1	607265.9142	0.5024394941
607267.1144	1.600202436	4	49	1	9	2	1	607267.5144	0.5024765317
607268.7146	1.600234541	4	50	1	10	2	1	607269.1147	0.5027684035
607270.315	1.600126163	4	51	1	11	1	1	607270.7149	0.6026682411
607271.9151	1.600275561	4	52	1	12	1	1	607272.3152	0.502125822
607273.5154	1.600260089	4	53	2	12	2	1	607273.9155	0.5013299893
607275.1157	1.600243957	4	54	2	11	1	1	607275.5158	0.4010555831
607276.7158	1.600237436	4	55	2	10	2	1	607277.1158	0.5030500152
607278.3161	1.600233725	4	56	2	9	2	1	607278.7161	0.5029187433
607279.9163	1.600230609	4	57	2	8	1	1	607280.3164	0.5027100149
607281.5166	1.600239972	4	58	2	7	1	1	607281.9166	0.50288293
607283.1168	1.600222087	4	59	2	6	2	1	607283.5169	0.5026574262
607284.7171	1.600221466	4	60	2	5	1	1	607285.1171	0.5026844941
607286.3173	1.600223564	4	61	2	4	2	1	607286.7174	0.6025872771
607287.9176	1.600220623	4	62	2	3	2	0	607288.3176	0.5027612543
607289.5178	1.6002258	4	63	2	2	2	1	607289.9178	0.6028452168
607291.118	1.600238704	4	64	2	1	1	1	607291.5181	0.5012978996
607292.7183	1.600251057	4	65	5	1	1	0	607293.1183	0.4033189394
607294.3185	1.600265616	4	66	5	2	1	1	607294.7185	0.4020542682
607295.9188	1.600275997	4	67	5	3	2	1	607296.3189	0.4011025252
607297.5191	1.600101578	4	68	5	4	2	0	607297.9192	0.3006536153
607299.1192	1.600316052	4	69	5	5	2	1	607299.5194	0.4029906831
607300.7194	1.600263951	4	70	5	6	1	1	607301.1195	0.5011310623
607302.3197	1.600225159	4	71	5	7	2	1	607302.7198	0.5022534376
607303.92	1.600236745	4	72	5	8	1	1	607304.32	0.5027187996
607305.5202	1.600234466	4	73	5	9	1	1	607305.9204	0.5020476002
607307.1205	1.60022006	4	74	5	10	2	1	607307.5205	0.50270459
607308.7207	1.600345754	4	75	5	11	1	1	607309.1208	0.5023717261
607310.3209	1.600254394	4	76	5	12	2	1	607310.721	0.5027998486
607311.9212	1.600242332	4	77	3	12	2	1	607312.3212	0.5027216147
607313.5215	1.600199645	4	78	3	11	2	1	607313.9215	0.5026914374
607315.1217	1.600168966	4	79	3	10	2	1	607315.5217	0.5026456544
607316.7219	1.600234526	4	80	3	9	1	1	607317.122	0.5024987997
607318.3222	1.600231872	4	81	3	8	2	1	607318.7222	0.6027582902
607319.9224	1.600230168	4	82	3	7	2	1	607320.3225	0.502602745
607321.5227	1.600258695	4	83	3	6	2	1	607321.9227	0.6025209317
607323.123	1.600204181	4	84	3	5	1	1	607323.523	0.7013997406
607324.7232	1.600256755	4	85	3	4	1	1	607325.1233	0.7010931305
607326.3235	1.600135154	4	86	3	3	1	0	607326.7236	0.7014103456
607327.9235	1.600373175	4	87	3	2	2	0	607328.3237	0.5027859355
607329.5239	1.600205336	4	88	3	1	2	1	607329.9239	0.4025443394
607331.1241	1.600226123	4	89	6	1	2	0	607331.5242	0.503109977
607332.7243	1.600249559	4	90	6	2	1	0	607333.1244	0.7025802111
607334.3246	1.600231604	4	91	6	3	1	1	607334.7247	0.6027577091
607335.9248	1.600249146	4	92	6	4	1	0	607336.3249	0.4025924713
607337.5251	1.600270329	4	93	6	5	2	1	607337.9252	0.6015790841
607339.1254	1.600281563	4	94	6	6	1	0	607339.5255	0.6012141779
607340.7257	1.600229923	4	95	6	7	1	1	607341.1257	0.5010258153
607342.3258	1.600373202	4	96	6	8	2	1	607342.7258	0.6029593755
607343.926	1.600222924	4	97	6	9	1	1	607344.3261	0.6032324265
607345.5263	1.600229753	4	98	6	10	2	1	607345.9263	0.7029805658
607347.1265	1.600229562	4	99	6	11	1	1	607347.5266	0.8026972449
607348.7268	1.600222434	4	100	6	12	1	1	607349.1269	0.8026124559
607350.327	1.600213075	4	101	5	12	2	1	607350.7271	0.7025111881
607351.9273	1.600249083	4	102	5	11	1	1	607352.3273	0.5027505805
607353.5275	1.600213204	4	103	5	10	1	1	607353.9276	0.5027337692
607355.1278	1.600228277	4	104	5	9	1	1	607355.5278	0.5023705921
607356.728	1.600239141	4	105	5	8	2	1	607357.1281	0.5020625374
607358.3283	1.600224066	4	106	5	7	1	1	607358.7283	0.6028478279
607359.9285	1.600231117	4	107	5	6	1	0	607360.3285	0.9027201637
607361.5287	1.600223155	4	108	5	5	1	1	607361.9288	0.6026464544
607363.129	1.600249326	4	109	5	4	1	1	607363.529	0.6027440506
607364.7292	1.600249909	4	110	5	3	2	1	607365.1293	0.3024958241
607366.3295	1.600218576	4	111	5	2	1	1	607366.7295	0.50273316
607367.9297	1.600221041	4	112	5	1	2	1	607368.3298	0.4028093241
607369.53	1.600222626	4	113	3	1	2	0	607369.93	0.402594149
607371.1302	1.600230792	4	114	3	2	1	0	607371.5303	0.5030982239
607372.7304	1.600237681	4	115	3	3	2	0	607373.1305	0.3011848129
607374.3307	1.600234879	4	116	3	4	2	1	607374.7307	0.5024078732
607375.9311	1.600215264	4	117	3	5	1	1	607376.331	0.5030020223
607377.5312	1.600193964	4	118	3	6	2	1	607377.9313	0.501092423
607379.1314	1.600237259	4	119	3	7	1	1	607379.5315	0.5022460241
607380.7317	1.608498673	4	120	3	8	2	1	607381.1318	0.501288267
607382.3403	1.600118874	4	121	3	9	1	1	607382.7403	0.5031114148
607383.9405	1.600240842	4	122	3	10	1	0	607384.3405	0.4029360641
607385.5407	1.600214979	4	123	3	11	2	1	607385.9408	0.5032503225
607387.141	1.600229209	4	124	3	12	1	1	607387.541	0.5028388732
607388.7412	1.600219541	4	125	1	12	2	1	607389.1413	0.4024629733
607390.3414	1.600231394	4	126	1	11	1	1	607390.7415	0.5025303637
607391.9417	1.600204638	4	127	1	10	1	1	607392.3419	0.4025605682
607393.5419	1.600228098	4	128	1	9	1	1	607393.942	0.502746426
607395.1422	1.600313145	4	129	1	8	2	1	607395.5422	0.6029697222
607396.7425	1.600203722	4	130	1	7	1	1	607397.1425	0.5024040147
607398.3427	1.600205881	4	131	1	6	1	1	607398.7427	0.6026914374
607399.943	1.600101797	4	132	1	5	2	1	607400.343	0.9025481544
607401.5432	1.600236888	4	133	1	4	1	1	607401.9433	0.5026537664
607403.1434	1.600254478	4	134	1	3	1	0	607403.5434	0.4029512638
607404.7437	1.600271952	4	135	1	2	2	0	607405.1437	0.5020320597
607406.3439	1.600257288	4	136	1	1	2	1	607406.744	0.4009916309
607407.9442	1.600227277	4	137	4	1	1	1	607408.3443	0.4006018058
607409.5445	1.60849809	4	138	4	2	1	0	607409.9445	0.5010246985
607411.153	1.600152714	4	139	4	3	1	1	607411.5531	0.4013739214
607412.7533	1.600231027	4	140	4	4	1	0	607413.1534	0.5009696643
607414.3535	1.600112251	4	141	4	5	1	1	607414.7535	0.602930862
607415.9537	1.600214304	4	142	4	6	2	1	607416.3537	0.5029308206
607417.5539	1.600215223	4	143	4	7	2	1	607417.954	0.6022602847
607419.1542	1.600218977	4	144	4	8	2	1	607419.5542	0.5021277128
607420.7544	1.600227364	4	145	4	9	1	1	607421.1545	0.5025969675
607422.3547	1.600222228	4	146	4	10	2	1	607422.7547	0.5027766223
607423.9549	1.600233947	4	147	4	11	1	1	607424.355	0.5027467996
607425.5551	1.600239163	4	148	4	12	1	1	607425.9552	0.5025584868
607427.1554	1.600235568	4	149	7	13	3	n/a	607427.5555	n/a
607428.7557	1.600202681	4	150	7	13	3	n/a	607429.1557	n/a
607430.356	1.600252527	4	151	7	13	3	n/a	607430.756	n/a
607431.9562	1.600239974	4	152	7	13	3	n/a	607432.3563	n/a
