onset	duration	run_number	trial_number	spatial_frequency	michelson_contrast	probe_orientation	response_correctness	probe_time	reaction_time
606899.4752	1.600129089	5	1	7	13	3	n/a	606899.8751	n/a
606901.0753	1.600215274	5	2	7	13	3	n/a	606901.4754	n/a
606902.6757	1.600127177	5	3	7	13	3	n/a	606903.0757	n/a
606904.2758	1.600219037	5	4	7	13	3	n/a	606904.6759	n/a
606905.8761	1.600227643	5	5	6	12	2	1	606906.2761	0.5029284752
606907.4763	1.600215343	5	6	6	11	1	1	606907.8764	0.6031240519
606909.0765	1.600334921	5	7	6	10	2	1	606909.4766	0.603128152
606910.6768	1.600233926	5	8	6	9	1	1	606911.0769	0.7032258752
606912.277	1.600219174	5	9	6	8	2	1	606912.6771	1.003684982
606913.8773	1.600224783	5	10	6	7	1	0	606914.2773	0.8023221587
606915.4775	1.600207777	5	11	6	6	2	1	606915.8776	0.9040682354
606917.0778	1.600258043	5	12	6	5	2	0	606917.4778	0.9030493094
606918.6781	1.600271496	5	13	6	4	1	1	606919.0781	0.8021028335
606920.2783	1.600246076	5	14	6	3	1	0	606920.6784	0.8017189441
606921.8786	1.600096955	5	15	6	2	2	0	606922.2786	0.7047306852
606923.4787	1.600219627	5	16	6	1	2	1	606923.8788	0.7034390711
606925.079	1.60024073	5	17	2	1	1	1	606925.479	0.8032134246
606926.6792	1.600218753	5	18	2	2	2	1	606927.0793	0.7026554847
606928.2794	1.600230519	5	19	2	3	1	1	606928.6795	0.8027024075
606929.8797	1.60021831	5	20	2	4	2	1	606930.2798	0.602539815
606931.48	1.600256206	5	21	2	5	2	1	606931.88	0.8021024832
606933.0803	1.600265983	5	22	2	6	1	1	606933.4803	0.6015002376
606934.6805	1.600234263	5	23	2	7	2	1	606935.0806	0.6010419084
606936.2808	1.600106987	5	24	2	8	2	1	606936.6808	0.6031342715
606937.8809	1.600196279	5	25	2	9	2	1	606938.281	0.5031655028
606939.4811	1.600212781	5	26	2	10	2	1	606939.8812	0.7031058398
606941.0814	1.600238576	5	27	2	11	2	1	606941.4814	0.5030700098
606942.6817	1.600221893	5	28	2	12	1	1	606943.0817	0.4027248052
606944.2819	1.600227177	5	29	4	12	1	1	606944.6821	0.6024588152
606945.8821	1.600249192	5	30	4	11	1	1	606946.2822	0.5025070519
606947.4824	1.600318667	5	31	4	10	2	1	606947.8825	0.5025311572
606949.0826	1.600249943	5	32	4	9	2	1	606949.4827	0.5027092821
606950.6829	1.60021332	5	33	4	8	2	1	606951.0829	0.602666482
606952.2831	1.60022421	5	34	4	7	1	1	606952.6832	0.5026944751
606953.8834	1.60021476	5	35	4	6	2	1	606954.2834	0.601234652
606955.4836	1.600220844	5	36	4	5	1	1	606955.8837	0.6024268587
606957.0838	1.600230886	5	37	4	4	1	1	606957.4839	0.7027387382
606958.6841	1.600257452	5	38	4	3	1	0	606959.0841	0.7028059108
606960.2844	1.600251792	5	39	4	2	2	1	606960.6844	0.7019483107
606961.8847	1.600220217	5	40	4	1	1	1	606962.2847	0.8012519347
606963.4849	1.600126897	5	41	1	1	1	1	606963.885	0.702906318
606965.0852	1.600113422	5	42	1	2	1	1	606965.4852	0.7012178522
606966.6853	1.60026482	5	43	1	3	1	1	606967.0854	0.7020905737
606968.2856	1.600280366	5	44	1	4	1	1	606968.6857	0.7013364279
606969.8859	1.600215969	5	45	1	5	2	0	606970.286	0.8005929113
606971.4861	1.600138633	5	46	1	6	2	1	606971.8861	0.5028666165
606973.0863	1.600213477	5	47	1	7	2	1	606973.4863	0.5026653381
606974.6865	1.60022877	5	48	1	8	2	1	606975.0866	0.4027284012
606976.2868	1.600234086	5	49	1	9	2	1	606976.6868	0.6026794985
606977.887	1.600221807	5	50	1	10	2	1	606978.2871	0.4026982819
606979.4872	1.600223307	5	51	1	11	2	1	606979.8873	0.5026076916
606981.0875	1.60023343	5	52	1	12	2	1	606981.4876	0.5027334655
606982.6877	1.600270459	5	53	2	12	1	1	606983.0878	0.5018778599
606984.288	1.600264143	5	54	2	11	2	1	606984.6881	0.5011380075
606985.8883	1.600246612	5	55	2	10	2	1	606986.2884	0.6010679277
606987.4886	1.600103058	5	56	2	9	2	1	606987.8886	0.5028576878
606989.0888	1.600123288	5	57	2	8	2	1	606989.4888	0.6028549314
606990.6889	1.600283426	5	58	2	7	1	1	606991.089	0.7028752178
606992.2892	1.600212115	5	59	2	6	2	1	606992.6893	0.7011797177
606993.8894	1.600227975	5	60	2	5	1	1	606994.2895	0.4025357546
606995.4897	1.60023187	5	61	2	4	1	0	606995.8898	0.4021048011
606997.0899	1.60023231	5	62	2	3	2	0	606997.4901	0.3025421083
606998.6902	1.60022299	5	63	2	2	2	1	606999.0902	0.2024853081
607000.2904	1.60033259	5	64	2	1	2	0	607000.6905	0.3034080382
607001.8907	1.600209882	5	65	5	1	2	1	607002.2907	0.5019893516
607003.491	1.600268643	5	66	5	2	2	0	607003.8911	0.401183381
607005.0913	1.600212449	5	67	5	3	1	0	607005.4913	0.3013514809
607006.6915	1.600100424	5	68	5	4	2	0	607007.0914	0.3030677823
607008.2916	1.600236189	5	69	5	5	1	0	607008.6917	0.4030402302
607009.8918	1.600247465	5	70	5	6	2	0	607010.2919	0.5026348233
607011.4921	1.600255159	5	71	5	7	2	1	607011.8922	0.6025257875
607013.0924	1.600220623	5	72	5	8	2	1	607013.4924	0.6021163682
607014.6927	1.600153201	5	73	5	9	2	1	607015.0927	0.6025429013
607016.2928	1.600228652	5	74	5	10	2	1	607016.6929	0.6026682478
607017.8931	1.600226163	5	75	5	11	2	1	607018.2932	0.6021951287
607019.4933	1.60024442	5	76	5	12	2	1	607019.8934	0.5027549915
607021.0936	1.60024784	5	77	3	12	2	1	607021.4936	0.402856478
607022.6938	1.600283287	5	78	3	11	2	1	607023.0939	0.4019554259
607024.2941	1.600275159	5	79	3	10	1	1	607024.6942	0.6015687268
607025.8944	1.600237943	5	80	3	9	1	1	607026.2945	0.7006152277
607027.4947	1.608511712	5	81	3	8	2	1	607027.8946	0.7104299919
607029.1032	1.600271306	5	82	3	7	1	1	607029.5033	0.5011518239
607030.7035	1.600264416	5	83	3	6	2	1	607031.1035	0.7006220345
607032.3036	1.600253092	5	84	3	5	1	1	607032.7038	0.7027859386
607033.9038	1.600217001	5	85	3	4	2	0	607034.3039	0.8026494272
607035.5041	1.600219337	5	86	3	3	2	1	607035.9042	0.5035569903
607037.1043	1.600233286	5	87	3	2	1	1	607037.5044	0.3028625177
607038.7046	1.600233577	5	88	3	1	2	1	607039.1046	0.4011214586
607040.3048	1.600234	5	89	6	1	1	1	607040.7049	0.5024487999
607041.9051	1.60021579	5	90	6	2	1	0	607042.3051	0.4024739808
607043.5053	1.600198049	5	91	6	3	1	1	607043.9054	0.5026766998
607045.1056	1.600264387	5	92	6	4	1	0	607045.5056	0.602410545
607046.7058	1.600237304	5	93	6	5	1	1	607047.1059	0.6024533847
607048.3061	1.600128637	5	94	6	6	1	1	607048.7061	0.7027705339
607049.9063	1.60022759	5	95	6	7	1	0	607050.3063	0.602353515
607051.5065	1.600235305	5	96	6	8	1	1	607051.9066	0.8026637519
607053.1068	1.60024066	5	97	6	9	1	0	607053.5069	0.6027965382
607054.707	1.600259237	5	98	6	10	2	1	607055.1071	0.5024270519
607056.3073	1.600269943	5	99	6	11	1	1	607056.7074	0.4018153549
607057.9076	1.600263854	5	100	6	12	2	1	607058.3077	0.5009192963
607059.5079	1.600218911	5	101	5	12	2	1	607059.9079	0.6025958414
607061.108	1.600227107	5	102	5	11	1	1	607061.5081	0.4027881547
607062.7082	1.600225812	5	103	5	10	2	1	607063.1083	0.5029480136
607064.3085	1.600211178	5	104	5	9	1	1	607064.7086	0.4027334342
607065.9087	1.600231686	5	105	5	8	1	1	607066.3088	0.5029442012
607067.509	1.600237084	5	106	5	7	1	1	607067.909	0.502774623
607069.1092	1.600239773	5	107	5	6	2	1	607069.5093	0.7026883313
607070.7095	1.600258846	5	108	5	5	2	1	607071.1096	0.6018634982
607072.3098	1.60026368	5	109	5	4	1	1	607072.7099	0.3012915156
607073.9101	1.60022184	5	110	5	3	1	0	607074.3101	0.3005805851
607075.5103	1.60010344	5	111	5	2	2	0	607075.9104	0.4010952277
607077.1105	1.600109548	5	112	5	1	2	1	607077.5106	0.5027931139
607078.7106	1.600271618	5	113	3	1	1	1	607079.1107	0.6035311249
607080.3109	1.600270069	5	114	3	2	1	1	607080.7109	0.602977685
607081.9111	1.600239452	5	115	3	3	2	1	607082.3112	0.7027521176
607083.5114	1.600239359	5	116	3	4	1	1	607083.9116	0.8024457509
607085.1117	1.600217447	5	117	3	5	1	1	607085.5117	0.6030570546
607086.7119	1.600349178	5	118	3	6	1	1	607087.112	0.6024949724
607088.3121	1.600241999	5	119	3	7	1	1	607088.7122	0.6026370354
607089.9124	1.600242756	5	120	3	8	2	1	607090.3125	0.5025562587
607091.5126	1.600250973	5	121	3	9	2	1	607091.9127	0.401088204
607093.1129	1.600246253	5	122	3	10	1	1	607093.5129	0.6024327888
607094.7131	1.600224827	5	123	3	11	2	1	607095.1132	0.502482452
607096.3134	1.600241706	5	124	3	12	2	1	607096.7134	0.6027989944
607097.9136	1.600223073	5	125	1	12	2	1	607098.3137	0.5027575176
607099.5139	1.600207984	5	126	1	11	1	1	607099.9139	0.4024472916
607101.1142	1.600147306	5	127	1	10	2	1	607101.5142	0.4024471684
607102.7143	1.60023404	5	128	1	9	2	1	607103.1144	0.502425415
607104.3146	1.600239773	5	129	1	8	2	1	607104.7146	0.7012312462
607105.9148	1.600236056	5	130	1	7	2	1	607106.3149	0.602448378
607107.5151	1.60023571	5	131	1	6	2	1	607107.9151	0.6025102519
607109.1153	1.600231663	5	132	1	5	2	1	607109.5154	0.6026380485
607110.7156	1.60022161	5	133	1	4	1	1	607111.1156	0.202928982
607112.3158	1.600291313	5	134	1	3	1	0	607112.7159	0.3026151586
607113.9161	1.600280513	5	135	1	2	1	1	607114.3161	0.4017539693
607115.5164	1.600253551	5	136	1	1	1	0	607115.9164	0.3009602235
607117.1166	1.60010893	5	137	4	1	2	0	607117.5167	0.3033387879
607118.7168	1.60023543	5	138	4	2	1	1	607119.1168	0.4029129273
607120.317	1.600253629	5	139	4	3	1	1	607120.7171	0.5026713574
607121.9172	1.600242305	5	140	4	4	1	1	607122.3173	0.6027717302
607123.5175	1.600236119	5	141	4	5	1	0	607123.9176	0.4026115682
607125.1177	1.600231766	5	142	4	6	2	1	607125.5178	0.6025648973
607126.718	1.600233803	5	143	4	7	1	1	607127.1181	0.6011394628
607128.3183	1.600275336	5	144	4	8	2	1	607128.7182	0.501608824
607129.9186	1.600258303	5	145	4	9	2	1	607130.3186	0.5006139413
607131.5188	1.600070947	5	146	4	10	2	1	607131.9189	0.6005293549
607133.119	1.600215247	5	147	4	11	1	1	607133.519	0.6011259345
607134.7192	1.600244258	5	148	4	12	1	1	607135.1192	0.7030662795
607136.3194	1.600233893	5	149	7	13	3	n/a	607136.7195	n/a
607137.9197	1.600227177	5	150	7	13	3	n/a	607138.3198	n/a
607139.5199	1.600243989	5	151	7	13	3	n/a	607139.92	n/a
607141.1202	1.60023348	5	152	7	13	3	n/a	607141.5203	n/a
