onset	duration	run_number	trial_number	spatial_frequency	michelson_contrast	probe_orientation	response_correctness	probe_time	reaction_time
12947.77287	1.600210673	7	1	7	13	3	n/a	12948.17289	n/a
12949.37311	1.600248408	7	2	7	13	3	n/a	12949.77318	n/a
12950.97338	1.600085733	7	3	7	13	3	n/a	12951.37343	n/a
12952.57348	1.600248902	7	4	7	13	3	n/a	12952.97355	n/a
12954.17375	1.600218329	7	5	6	12	2	1	12954.5738	0.8071893342
12955.77399	1.600262056	7	6	6	11	2	1	12956.17405	0.6028211854
12957.37427	1.600269175	7	7	6	10	1	0	12957.77434	0.50201277
12958.97455	1.60027364	7	8	6	9	2	0	12959.37463	0.2013249651
12960.57485	1.600224065	7	9	6	8	1	0	12960.97491	0.1010049732
12962.17509	1.600166752	7	10	6	7	2	0	12962.57515	0.2024629309
12963.77526	1.600273246	7	11	6	6	1	1	12964.17534	0.5019645195
12965.37557	1.60024999	7	12	6	5	1	0	12965.77565	0.303273574
12966.97584	1.600111112	7	13	6	4	1	1	12967.37589	0.2032743073
12968.57595	1.600239441	7	14	6	3	1	0	12968.97601	0.302484309
12970.17621	1.600230407	7	15	6	2	1	1	12970.57638	0.4031807024
12971.77644	1.600230206	7	16	6	1	2	1	12972.17652	0.4030325911
12973.3767	1.600334216	7	17	2	1	2	0	12973.77678	0.3030073496
12974.97696	1.600215463	7	18	2	2	2	1	12975.37702	0.3024673179
12976.57719	1.600241517	7	19	2	3	1	1	12976.97727	0.2028217602
12978.17744	1.600239546	7	20	2	4	2	1	12978.5775	0.3026035952
12979.77766	1.600244449	7	21	2	5	2	0	12980.17776	0.202534696
12981.37793	1.600273269	7	22	2	6	2	1	12981.778	0.2025462537
12982.97823	1.600275693	7	23	2	7	1	1	12983.37828	0.2020240073
12984.5785	1.600264272	7	24	2	8	1	0	12984.9786	0.4013714732
12986.17877	1.600103728	7	25	2	9	2	1	12986.57884	0.4025967496
12987.77898	1.600146776	7	26	2	10	2	1	12988.17895	0.4025614155
12989.37917	1.600223419	7	27	2	11	1	0	12989.77922	0.4023974968
12990.97939	1.60024	7	28	2	12	1	1	12991.37947	0.4028151846
12992.57964	1.600238765	7	29	4	12	2	1	12992.97971	0.4026764895
12994.17988	1.600242453	7	30	4	11	1	1	12994.58005	0.602322761
12995.78015	1.600208564	7	31	4	10	2	1	12996.18024	0.6026336553
12997.38039	1.600251049	7	32	4	9	1	1	12997.78044	0.702323748
12998.98071	1.600216622	7	33	4	8	1	0	12999.38071	0.9019246399
13000.58094	1.600280563	7	34	4	7	2	n/a	13000.98103	n/a
13002.18121	1.600246223	7	35	4	6	2	0	13002.58128	0.2013833959
13003.78148	1.600107517	7	36	4	5	2	1	13004.18153	0.3005688545
13005.38157	1.600252272	7	37	4	4	1	1	13005.78166	0.3029224147
13006.98182	1.600248567	7	38	4	3	1	0	13007.38191	0.2023618675
13008.58211	1.600227988	7	39	4	2	1	1	13008.98216	0.3024766732
13010.18234	1.600230371	7	40	4	1	1	1	13010.5824	0.2027338252
13011.78258	1.600247588	7	41	1	1	1	0	13012.18265	0.1026503366
13013.38295	1.600129695	7	42	1	2	2	0	13013.78289	0.2055945781
13014.98307	1.600228241	7	43	1	3	1	0	13015.38313	0.2021635196
13016.58334	1.600227733	7	44	1	4	1	1	13016.9834	0.4025715366
13018.18357	1.600239554	7	45	1	5	2	1	13018.58364	0.3024093017
13019.78383	1.60025074	7	46	1	6	2	0	13020.1839	0.202350283
13021.38413	1.600237271	7	47	1	7	1	0	13021.78419	0.4015251545
13022.9844	1.600253994	7	48	1	8	1	0	13023.38448	0.4010835618
13024.58467	1.600089821	7	49	1	9	1	1	13024.98472	0.8027728789
13026.18477	1.600232894	7	50	1	10	1	1	13026.58485	0.6030546374
13027.785	1.600253662	7	51	1	11	2	1	13028.18509	0.4026721212
13029.38528	1.600257083	7	52	1	12	2	0	13029.78535	0.3025344724
13030.98553	1.600232895	7	53	2	12	2	1	13031.3856	0.3024412887
13032.58575	1.600265815	7	54	2	11	1	1	13032.98585	0.5028529822
13034.18602	1.600243176	7	55	2	10	1	0	13034.58608	0.3025305131
13035.78627	1.600236276	7	56	2	9	1	1	13036.18634	0.6024854781
13037.38652	1.600227299	7	57	2	8	2	0	13037.78659	0.6024893667
13038.98674	1.600257596	7	58	2	7	1	0	13039.38682	0.6027262838
13040.58702	1.600217015	7	59	2	6	2	0	13040.98708	0.5025590903
13042.18726	1.600255138	7	60	2	5	2	1	13042.58732	0.3023842537
13043.78754	1.600265481	7	61	2	4	1	1	13044.18762	0.1014159431
13045.38784	1.60022279	7	62	2	3	2	1	13045.78791	0.1006288911
13046.9881	1.6001064	7	63	2	2	1	0	13047.38816	0.1031705146
13048.58822	1.600249693	7	64	2	1	1	1	13048.98828	0.102198509
13050.18847	1.600225437	7	65	5	1	2	1	13050.58853	0.1025604968
13051.78872	1.600235789	7	66	5	2	2	0	13052.18878	0.2025058204
13053.38896	1.600220587	7	67	5	3	2	1	13053.78903	0.5022288545
13054.98922	1.600227653	7	68	5	4	2	0	13055.38927	0.3024433423
13056.58945	1.600265141	7	69	5	5	1	0	13056.98953	0.2021246196
13058.18969	1.600241501	7	70	5	6	2	0	13058.58976	0.2026735252
13059.78995	1.600247728	7	71	5	7	1	0	13060.19002	0.2021550423
13061.39019	1.600244889	7	72	5	8	2	0	13061.79027	0.2024354659
13062.99044	1.600222322	7	73	5	9	2	1	13063.39051	0.3026404074
13064.5907	1.600217753	7	74	5	10	2	0	13064.99073	0.4027939261
13066.19093	1.600248801	7	75	5	11	1	0	13066.59098	0.6027437545
13067.79117	1.600251742	7	76	5	12	2	1	13068.19122	0.5027251326
13069.39142	1.600288004	7	77	3	12	2	1	13069.7915	0.60207757
13070.99173	1.600272869	7	78	3	11	1	1	13071.39178	0.4013327358
13072.59201	1.600230477	7	79	3	10	2	1	13072.99208	0.6009976203
13074.19215	1.60023539	7	80	3	9	2	1	13074.59221	0.6029017383
13075.7924	1.600223665	7	81	3	8	2	0	13076.19246	0.6029895773
13077.39264	1.600225877	7	82	3	7	1	1	13077.79273	0.4024629383
13078.99288	1.600228724	7	83	3	6	2	1	13079.39296	0.3029879903
13080.59314	1.600217047	7	84	3	5	1	1	13080.99328	0.4027082976
13082.1935	1.600138784	7	85	3	4	2	1	13082.59344	0.2024637488
13083.79365	1.600287461	7	86	3	3	1	1	13084.19374	0.1024094228
13085.39393	1.600266211	7	87	3	2	1	0	13085.79402	0.2010647529
13086.99421	1.600237437	7	88	3	1	2	0	13087.39429	0.1009763146
13088.59448	1.600078715	7	89	6	1	2	1	13088.99454	0.2009413968
13090.19457	1.600258348	7	90	6	2	1	1	13090.59478	0.1028351366
13091.79481	1.600260996	7	91	6	3	2	1	13092.19488	0.1028595163
13093.39505	1.600386462	7	92	6	4	2	0	13093.79513	0.2026872285
13094.99533	1.600254738	7	93	6	5	2	1	13095.3954	0.3023829252
13096.59559	1.600237093	7	94	6	6	1	1	13096.99566	0.4025843781
13098.1959	1.600171741	7	95	6	7	1	0	13098.5959	0.3027255781
13099.79607	1.600251989	7	96	6	8	2	0	13100.19613	0.4027389846
13101.39634	1.600220593	7	97	6	9	1	0	13101.79639	0.4027472895
13102.99658	1.600247637	7	98	6	10	1	1	13103.39664	0.100841996
13104.59682	1.600228183	7	99	6	11	2	1	13104.99687	0.2021540374
13106.19705	1.60024689	7	100	6	12	2	0	13106.59718	0.2017352683
13107.79739	1.600154445	7	101	5	12	2	1	13108.19738	0.6024461716
13109.39757	1.600238948	7	102	5	11	2	1	13109.79762	0.6027393082
13110.99781	1.600237141	7	103	5	10	1	1	13111.39787	0.7013191781
13112.59806	1.600229985	7	104	5	9	1	0	13112.99813	0.4026097659
13114.19831	1.600230907	7	105	5	8	1	1	13114.59836	0.3025633724
13115.79852	1.60020502	7	106	5	7	1	0	13116.19861	0.3024539952
13117.39879	1.600233853	7	107	5	6	2	0	13117.79886	0.4024359602
13118.99904	1.600230307	7	108	5	5	2	1	13119.39911	0.4026828163
13120.59928	1.600227548	7	109	5	4	1	1	13120.99933	0.3022990309
13122.19953	1.600225776	7	110	5	3	2	1	13122.59959	0.2024487602
13123.79976	1.600249089	7	111	5	2	1	1	13124.19982	0.3022878602
13125.4	1.600237677	7	112	5	1	2	1	13125.80007	0.3025734309
13127.00026	1.600260036	7	113	3	1	1	1	13127.40033	0.4023248366
13128.60052	1.600282422	7	114	3	2	2	1	13129.00059	0.4018609797
13130.20082	1.600260597	7	115	3	3	1	1	13130.60089	0.4011435805
13131.80109	1.600129241	7	116	3	4	2	1	13132.20116	0.2005505496
13133.40122	1.600239866	7	117	3	5	2	0	13133.80132	0.3027056171
13135.00147	1.600241919	7	118	3	6	1	0	13135.40155	0.3030331261
13136.60173	1.600245419	7	119	3	7	2	0	13137.00178	0.3028622309
13138.20198	1.600236367	7	120	3	8	1	1	13138.60203	0.2024564187
13139.80221	1.600241754	7	121	3	9	1	0	13140.20229	0.3023317244
13141.40246	1.600235841	7	122	3	10	2	1	13141.80254	0.4024803244
13143.00271	1.600231364	7	123	3	11	1	1	13143.40278	0.4027421488
13144.60295	1.600245065	7	124	3	12	2	1	13145.00302	0.6026446423
13146.20321	1.600211316	7	125	1	12	1	1	13146.60327	0.5020255895
13147.80346	1.600224171	7	126	1	11	2	1	13148.20352	0.4020532602
13149.4037	1.600228949	7	127	1	10	2	0	13149.80377	0.4026004813
13151.00394	1.60024369	7	128	1	9	2	1	13151.404	0.4027832431
13152.60419	1.6002303	7	129	1	8	1	1	13153.00425	0.6026923131
13154.20443	1.600220919	7	130	1	7	2	1	13154.60448	0.7027109545
13155.80469	1.600214089	7	131	1	6	2	0	13156.20473	0.4024885423
13157.40492	1.600229747	7	132	1	5	1	0	13157.80499	0.6026716781
13159.00516	1.600251737	7	133	1	4	1	1	13159.40522	0.7020046204
13160.60542	1.600270346	7	134	1	3	2	0	13161.00549	0.1018261569
13162.20573	1.600258139	7	135	1	2	2	1	13162.6058	0.4013018407
13163.806	1.600231899	7	136	1	1	1	1	13164.20606	0.5010317903
13165.40612	1.600253726	7	137	4	1	1	1	13165.8063	0.4030202781
13167.00637	1.600226266	7	138	4	2	1	0	13167.40643	0.4007043513
13168.60662	1.60023342	7	139	4	3	1	1	13169.00668	0.3031007391
13170.20688	1.60027461	7	140	4	4	1	0	13170.60695	0.7022802537
13171.80716	1.600292498	7	141	4	5	1	1	13172.20724	0.3017183309
13173.40745	1.600255672	7	142	4	6	1	0	13173.80754	0.3010390618
13175.00772	1.600142226	7	143	4	7	1	1	13175.40778	0.4025790488
13176.60789	1.600273563	7	144	4	8	1	0	13177.00796	0.3018570683
13178.20819	1.600251585	7	145	4	9	2	0	13178.60825	0.4008251455
13179.80848	1.600210129	7	146	4	10	1	0	13180.20851	0.5028722545
13181.4087	1.600137594	7	147	4	11	2	1	13181.80866	0.4027456903
13183.00882	1.600252778	7	148	4	12	1	1	13183.4089	0.4028042204
13184.60909	1.60024058	7	149	7	13	3	n/a	13185.00912	n/a
13186.20932	1.600244371	7	150	7	13	3	n/a	13186.6094	n/a
13187.80959	1.600197666	7	151	7	13	3	n/a	13188.20965	n/a
13189.40982	1.600241665	7	152	7	13	3	n/a	13189.80989	n/a
