onset	duration	run_number	trial_number	spatial_frequency	michelson_contrast	probe_orientation	response_correctness	probe_time	reaction_time
606341.0068	1.600182818	2	1	7	13	3	n/a	606341.4069	n/a
606342.607	1.600218075	2	2	7	13	3	n/a	606343.0071	n/a
606344.2073	1.600235912	2	3	7	13	3	n/a	606344.6074	n/a
606345.8075	1.60023457	2	4	7	13	3	n/a	606346.2076	n/a
606347.4078	1.600264324	2	5	6	12	2	1	606347.8078	0.5076107753
606349.0081	1.600268014	2	6	6	11	2	1	606349.4082	0.5018878836
606350.6084	1.600234335	2	7	6	10	1	1	606351.0084	0.6008324322
606352.2086	1.600115198	2	8	6	9	1	1	606352.6087	0.6032826547
606353.8087	1.600212425	2	9	6	8	1	1	606354.2088	0.7040444297
606355.409	1.600225438	2	10	6	7	1	1	606355.809	0.6032186948
606357.0092	1.600228978	2	11	6	6	2	1	606357.4093	0.6025576827
606358.6095	1.60024927	2	12	6	5	1	0	606359.0095	0.7031181722
606360.2097	1.600231155	2	13	6	4	1	1	606360.6098	0.8034483974
606361.81	1.60023365	2	14	6	3	1	0	606362.21	0.7034560549
606363.4102	1.600238405	2	15	6	2	1	1	606363.8103	0.7030182125
606365.0104	1.600236502	2	16	6	1	1	0	606365.4105	0.603097045
606366.6107	1.6002176	2	17	2	1	1	1	606367.0107	0.7026297072
606368.2109	1.600213622	2	18	2	2	2	1	606368.611	0.6028304899
606369.8112	1.600273814	2	19	2	3	1	1	606370.2113	0.602108382
606371.4115	1.600286624	2	20	2	4	1	1	606371.8116	0.7010556161
606373.0118	1.600240005	2	21	2	5	2	1	606373.4118	0.7017583771
606374.612	1.600124362	2	22	2	6	2	1	606375.0119	0.6026726345
606376.2122	1.600220055	2	23	2	7	1	1	606376.6122	0.60276669
606377.8124	1.600231012	2	24	2	8	1	1	606378.2125	0.5026519924
606379.4126	1.600220522	2	25	2	9	1	1	606379.8127	0.5026139843
606381.0129	1.60023775	2	26	2	10	1	1	606381.4129	0.5028076024
606382.6131	1.600196813	2	27	2	11	2	1	606383.0132	0.5027147823
606384.2134	1.600222447	2	28	2	12	1	1	606384.6134	0.5024521925
606385.8136	1.60021453	2	29	4	12	2	1	606386.2137	0.5028586675
606387.4139	1.600142819	2	30	4	11	2	1	606387.8139	0.502744765
606389.0141	1.60021228	2	31	4	10	1	1	606389.4142	0.6029325349
606390.6143	1.600241637	2	32	4	9	1	1	606391.0144	0.6026794123
606392.2146	1.600229745	2	33	4	8	1	1	606392.6146	0.6029027425
606393.8148	1.600236804	2	34	4	7	1	1	606394.2149	0.6027886224
606395.4151	1.600229678	2	35	4	6	1	1	606395.8152	0.6027611466
606397.0153	1.600281269	2	36	4	5	2	1	606397.4154	0.8021853325
606398.6155	1.60035002	2	37	4	4	1	0	606399.0157	1.001760748
606400.2159	1.600264064	2	38	4	3	1	1	606400.616	0.8006490893
606401.8162	1.600110262	2	39	4	2	2	1	606402.2162	0.6029865145
606403.4163	1.60022698	2	40	4	1	1	1	606403.8163	0.7028646249
606405.0165	1.60023913	2	41	1	1	2	1	606405.4166	0.6027298649
606406.6168	1.600231048	2	42	1	2	2	0	606407.0168	0.7031802948
606408.217	1.600239052	2	43	1	3	1	0	606408.6171	0.7031417848
606409.8173	1.60022149	2	44	1	4	2	1	606410.2173	0.5028569849
606411.4175	1.600240847	2	45	1	5	1	1	606411.8175	0.60240371
606413.0178	1.600246922	2	46	1	6	1	1	606413.4179	0.7019653557
606414.6181	1.600257054	2	47	1	7	2	1	606415.0181	0.6011513291
606416.2183	1.600296135	2	48	1	8	2	1	606416.6184	0.6006088671
606417.8186	1.600092893	2	49	1	9	2	1	606418.2185	0.6033036442
606419.4187	1.600351412	2	50	1	10	1	1	606419.8187	0.6031921743
606421.0189	1.600213398	2	51	1	11	1	1	606421.419	0.5031541794
606422.6192	1.600226652	2	52	1	12	2	1	606423.0194	0.5029437145
606424.2195	1.60021186	2	53	2	12	2	1	606424.6195	0.4026321927
606425.8197	1.600317498	2	54	2	11	1	1	606426.2198	0.4023354502
606427.4199	1.600228347	2	55	2	10	1	1	606427.82	0.4024971952
606429.0202	1.600210573	2	56	2	9	2	1	606429.4203	0.4026540951
606430.6204	1.600221065	2	57	2	8	1	1	606431.0205	0.4012881501
606432.2207	1.60023773	2	58	2	7	2	1	606432.6207	0.5027149601
606433.8209	1.600238933	2	59	2	6	2	1	606434.221	0.6027112401
606435.4212	1.60021851	2	60	2	5	2	1	606435.8212	0.70249642
606437.0214	1.60020792	2	61	2	4	1	0	606437.4215	0.6026076975
606438.6216	1.6002121	2	62	2	3	1	1	606439.0217	0.4024622376
606440.222	1.600142181	2	63	2	2	1	1	606440.622	0.8021969076
606441.8221	1.600222487	2	64	2	1	2	1	606442.2222	0.4024099851
606443.4224	1.600216275	2	65	5	1	1	1	606443.8224	0.3024403851
606445.0226	1.600216305	2	66	5	2	2	1	606445.4227	0.2025079152
606446.6229	1.60023038	2	67	5	3	1	1	606447.0229	0.3023766377
606448.2231	1.600240738	2	68	5	4	2	1	606448.6232	0.402523966
606449.8234	1.600209565	2	69	5	5	1	1	606450.2234	0.4024312975
606451.4236	1.600276447	2	70	5	6	2	1	606451.8237	0.5027127027
606453.0238	1.600227615	2	71	5	7	2	1	606453.4239	0.60254162
606454.6241	1.600246484	2	72	5	8	2	1	606455.0241	0.5023997051
606456.2244	1.600274737	2	73	5	9	2	1	606456.6244	0.601600591
606457.8247	1.600246857	2	74	5	10	1	1	606458.2247	0.5009250843
606459.4249	1.600115087	2	75	5	11	2	1	606459.825	0.5027069821
606461.025	1.600216418	2	76	5	12	1	1	606461.4251	0.502797665
606462.6253	1.600216432	2	77	3	12	1	1	606463.0253	0.6027528646
606464.2255	1.600242307	2	78	3	11	2	1	606464.6256	0.7027204875
606465.8258	1.600222433	2	79	3	10	2	1	606466.2258	0.7025570377
606467.426	1.60022785	2	80	3	9	1	1	606467.8261	0.6024621152
606469.0263	1.600278769	2	81	3	8	2	1	606469.4263	0.6019804678
606470.6265	1.600272994	2	82	3	7	2	1	606471.0266	0.8013229311
606472.2268	1.600223345	2	83	3	6	2	1	606472.6269	0.8006175596
606473.8271	1.600094335	2	84	3	5	2	1	606474.2272	0.903010137
606475.4272	1.600188863	2	85	3	4	2	1	606475.8273	0.9033435321
606477.0274	1.600350547	2	86	3	3	2	0	606477.4275	0.703213747
606478.6277	1.600249237	2	87	3	2	1	0	606479.0277	0.6027245667
606480.228	1.600244905	2	88	3	1	1	1	606480.628	0.5026464751
606481.8283	1.600129402	2	89	6	1	2	1	606482.2283	0.4023785426
606483.4285	1.600223463	2	90	6	2	1	1	606483.8285	0.4028020975
606485.0288	1.600227277	2	91	6	3	1	0	606485.4288	0.5025559525
606486.6289	1.600153897	2	92	6	4	1	1	606487.0291	0.6025599695
606488.2292	1.600219162	2	93	6	5	2	1	606488.6292	0.8027151549
606489.8294	1.600228947	2	94	6	6	2	0	606490.2295	0.8012138898
606491.4296	1.600243877	2	95	6	7	2	n/a	606491.8297	n/a
606493.03	1.600005214	2	96	6	8	1	n/a	606493.43	n/a
606494.6302	1.600182538	2	97	6	9	1	n/a	606495.0303	n/a
606496.2304	1.600225867	2	98	6	10	2	1	606496.6305	0.6027163473
606497.8307	1.600245539	2	99	6	11	1	1	606498.2307	0.6011379753
606499.4309	1.600268249	2	100	6	12	1	1	606499.831	0.6010442037
606501.0312	1.60021864	2	101	5	12	2	1	606501.4313	0.5009798021
606502.6315	1.600126822	2	102	5	11	1	1	606503.0315	0.5026671359
606504.2316	1.600267224	2	103	5	10	2	1	606504.6317	0.5022996229
606505.8319	1.600278294	2	104	5	9	2	1	606506.232	0.5011776637
606507.4322	1.600220853	2	105	5	8	2	1	606507.8323	0.7023754695
606509.0322	1.600265247	2	106	5	7	1	1	606509.4325	0.6040210522
606510.6326	1.600187653	2	107	5	6	2	0	606511.0326	0.9011675563
606512.2328	1.600206153	2	108	5	5	2	1	606512.6329	0.5029371221
606513.8331	1.600211903	2	109	5	4	2	0	606514.2331	0.4034666623
606515.4333	1.600249995	2	110	5	3	2	1	606515.8334	0.7017880999
606517.0336	1.600210425	2	111	5	2	2	0	606517.4336	0.6019013774
606518.6338	1.600205937	2	112	5	1	1	0	606519.0339	0.5017814487
606520.234	1.600261192	2	113	3	1	1	1	606520.6342	0.5021839926
606521.8343	1.600288604	2	114	3	2	2	1	606522.2344	0.4016733211
606523.4346	1.600238397	2	115	3	3	1	1	606523.8347	0.5010162145
606525.0348	1.600215813	2	116	3	4	1	1	606525.4349	0.7026280145
606526.635	1.600220818	2	117	3	5	1	1	606527.0351	0.8022979329
606528.2353	1.600217542	2	118	3	6	1	1	606528.6353	0.8029106621
606529.8355	1.60024034	2	119	3	7	2	1	606530.2356	0.6025526947
606531.4357	1.60023695	2	120	3	8	2	1	606531.8358	0.5023301898
606533.036	1.600223957	2	121	3	9	1	1	606533.4361	0.5025469187
606534.6363	1.600094785	2	122	3	10	1	1	606535.0363	0.6023866204
606536.2365	1.600272706	2	123	3	11	2	1	606536.6365	0.6027779951
606537.8367	1.60023533	2	124	3	12	1	1	606538.2368	0.6023056875
606539.437	1.600291347	2	125	1	12	2	1	606539.837	0.5018130156
606541.0372	1.600214095	2	126	1	11	2	1	606541.4373	0.6025091014
606542.6375	1.60024448	2	127	1	10	1	1	606543.0375	0.5017593179
606544.2378	1.600122683	2	128	1	9	1	1	606544.6379	0.5027299121
606545.8379	1.60036069	2	129	1	8	1	1	606546.238	0.5030036547
606547.4382	1.60026864	2	130	1	7	2	1	606547.8382	0.4030079097
606549.0385	1.600217843	2	131	1	6	1	1	606549.4385	0.8027214474
606550.6387	1.60018304	2	132	1	5	1	0	606551.0388	0.7025680701
606552.2389	1.600218112	2	133	1	4	1	1	606552.639	0.5029019623
606553.8392	1.60021042	2	134	1	3	1	1	606554.2392	0.6028511127
606555.4394	1.600244135	2	135	1	2	1	0	606555.8395	0.5027529328
606557.0397	1.600234327	2	136	1	1	1	1	606557.4397	0.6026122549
606558.6399	1.60024821	2	137	4	1	2	1	606559.04	0.4027044051
606560.2402	1.600166056	2	138	4	2	2	0	606560.6402	0.4020344726
606561.8404	1.600189838	2	139	4	3	1	0	606562.2405	0.4017921684
606563.4407	1.600229392	2	140	4	4	2	0	606563.8408	0.6010601169
606565.0409	1.600236045	2	141	4	5	1	1	606565.441	0.8029478821
606566.6411	1.600218558	2	142	4	6	1	1	606567.0412	0.6023384505
606568.2413	1.600256927	2	143	4	7	2	1	606568.6414	0.6030490871
606569.8416	1.600238092	2	144	4	8	2	1	606570.2416	0.6029825049
606571.4418	1.600256677	2	145	4	9	1	1	606571.8419	0.602713965
606573.0421	1.600206995	2	146	4	10	2	1	606573.4421	0.6027474275
606574.6423	1.600219895	2	147	4	11	1	1	606575.0424	0.5025450626
606576.2426	1.600220208	2	148	4	12	2	1	606576.6426	0.5028194526
606577.8428	1.600224118	2	149	7	13	3	n/a	606578.2429	n/a
606579.4431	1.600228925	2	150	7	13	3	n/a	606579.8431	n/a
606581.0433	1.600229437	2	151	7	13	3	n/a	606581.4434	n/a
606582.6435	1.600264034	2	152	7	13	3	n/a	606583.0436	n/a
