onset	duration	run_number	trial_number	spatial_frequency	michelson_contrast	probe_orientation	response_correctness	probe_time	reaction_time
606080.3006	1.600122518	1	1	7	13	3	n/a	606080.7006	n/a
606081.9008	1.6002343	1	2	7	13	3	n/a	606082.3009	n/a
606083.501	1.60022424	1	3	7	13	3	n/a	606083.9011	n/a
606085.1013	1.600249786	1	4	7	13	3	n/a	606085.5014	n/a
606086.7016	1.600275009	1	5	6	12	1	1	606087.1016	0.4062034752
606088.3018	1.600247864	1	6	6	11	1	1	606088.7019	0.5008301857
606089.9021	1.600113295	1	7	6	10	1	1	606090.3022	0.5026904655
606091.5023	1.600227844	1	8	6	9	2	1	606091.9023	0.7033092859
606093.1025	1.600239905	1	9	6	8	2	1	606093.5025	0.6030313515
606094.7027	1.600246324	1	10	6	7	1	1	606095.1028	0.7025411853
606096.303	1.600212657	1	11	6	6	2	0	606096.703	0.5030517472
606097.9032	1.60022314	1	12	6	5	1	0	606098.3033	0.4023287829
606099.5035	1.6002319	1	13	6	4	1	1	606099.9035	0.4022296418
606101.1038	1.60013414	1	14	6	3	1	0	606101.5038	0.5022042614
606102.704	1.60022842	1	15	6	2	2	1	606103.104	0.5028784452
606104.3042	1.600214837	1	16	6	1	2	0	606104.7043	0.7026037036
606105.9044	1.6002256	1	17	2	1	1	0	606106.3045	0.8030652475
606107.5047	1.600204021	1	18	2	2	1	1	606107.9047	0.9028777283
606109.1049	1.600208699	1	19	2	3	1	0	606109.505	0.802527348
606110.7051	1.600233464	1	20	2	4	2	1	606111.1052	0.8028376873
606112.3054	1.600346402	1	21	2	5	2	1	606112.7055	0.8026414829
606113.9057	1.600263909	1	22	2	6	2	1	606114.3058	0.7015924595
606115.506	1.600252727	1	23	2	7	1	1	606115.906	0.6011808097
606117.1062	1.600116955	1	24	2	8	2	1	606117.5063	0.6005968032
606118.7064	1.60023292	1	25	2	9	2	1	606119.1064	0.5027765279
606120.3066	1.60023402	1	26	2	10	1	1	606120.7067	0.4023114697
606121.9069	1.600206002	1	27	2	11	1	1	606122.3069	0.5027088089
606123.5071	1.60022086	1	28	2	12	1	1	606123.9071	0.602645373
606125.1073	1.600236502	1	29	4	12	2	1	606125.5074	0.5028762083
606126.7077	1.60013084	1	30	4	11	1	1	606127.1077	0.5027421068
606128.3079	1.600276269	1	31	4	10	2	1	606128.7079	0.6019819814
606129.9081	1.600282308	1	32	4	9	1	1	606130.3082	0.6012011116
606131.5084	1.600233701	1	33	4	8	2	1	606131.9085	0.6010613847
606133.1087	1.600234799	1	34	4	7	1	1	606133.5086	0.6030452356
606134.7088	1.600372469	1	35	4	6	2	1	606135.1088	0.5011425514
606136.309	1.600215537	1	36	4	5	2	1	606136.7091	0.6027888927
606137.9093	1.60023136	1	37	4	4	2	1	606138.3093	0.8025685285
606139.5095	1.600222457	1	38	4	3	2	0	606139.9096	0.7028120251
606141.1098	1.60021848	1	39	4	2	2	1	606141.5098	0.5023374662
606142.71	1.600203398	1	40	4	1	1	1	606143.1101	0.4025388877
606144.3103	1.600201958	1	41	1	1	1	0	606144.7103	0.3029625472
606145.9105	1.600225319	1	42	1	2	1	1	606146.3106	0.3029903661
606147.5108	1.600226098	1	43	1	3	2	1	606147.9108	0.5017885281
606149.111	1.600243083	1	44	1	4	1	1	606149.5111	0.6026907475
606150.7112	1.600229219	1	45	1	5	2	1	606151.1113	0.6025396667
606152.3115	1.600221078	1	46	1	6	1	1	606152.7116	0.602320955
606153.9118	1.600120237	1	47	1	7	2	1	606154.3118	0.6025902652
606155.512	1.600268648	1	48	1	8	1	1	606155.912	0.502633526
606157.1122	1.600224038	1	49	1	9	1	1	606157.5123	0.7008027059
606158.7124	1.600229061	1	50	1	10	1	1	606159.1125	0.7027144969
606160.3127	1.600235236	1	51	1	11	2	1	606160.7128	0.6020655662
606161.913	1.600212677	1	52	1	12	1	1	606162.3131	0.6025332254
606163.5132	1.600222559	1	53	2	12	1	1	606163.9132	0.5024774265
606165.1134	1.600317963	1	54	2	11	2	1	606165.5135	0.5021195657
606166.7137	1.600217761	1	55	2	10	2	1	606167.1137	0.6026453859
606168.3139	1.60021592	1	56	2	9	2	1	606168.714	0.6026421662
606169.9142	1.600221904	1	57	2	8	2	1	606170.3142	0.6001765222
606171.5144	1.6001629	1	58	2	7	1	1	606171.9143	0.5008466
606173.1144	1.6003423	1	59	2	6	2	1	606173.5145	0.6003718
606174.7147	1.6004173	1	60	2	5	2	1	606175.1147	0.5008617999
606176.3151	1.6000716	1	61	2	4	1	1	606176.7152	0.6007877
606177.9153	1.60027035	1	62	2	3	2	0	606178.3154	0.6007192
606179.5157	1.600122557	1	63	2	2	1	0	606179.9157	0.6030283299
606181.1158	1.600246022	1	64	2	1	1	1	606181.5159	0.6025345658
606182.7161	1.600219059	1	65	5	1	2	1	606183.1162	0.402583362
606184.3163	1.600254423	1	66	5	2	2	0	606184.7164	0.5024549265
606185.9166	1.60028103	1	67	5	3	2	1	606186.3167	0.5016204757
606187.5169	1.600257025	1	68	5	4	1	1	606187.917	0.5005915264
606189.1172	1.60009677	1	69	5	5	2	1	606189.5172	0.6030128846
606190.7173	1.600223199	1	70	5	6	1	1	606191.1174	0.9031515666
606192.3175	1.600238599	1	71	5	7	1	1	606192.7176	0.6025930475
606193.9178	1.600222719	1	72	5	8	1	1	606194.3179	0.6027020495
606195.518	1.600277064	1	73	5	9	1	1	606195.9181	0.5029939691
606197.1183	1.600216618	1	74	5	10	2	1	606197.5184	0.5021799442
606198.7185	1.60022314	1	75	5	11	1	1	606199.1186	0.5026017824
606200.3188	1.60023054	1	76	5	12	2	1	606200.7188	0.7027680065
606201.919	1.60022034	1	77	3	12	1	1	606202.3191	0.6025042053
606203.5192	1.600239241	1	78	3	11	2	1	606203.9193	0.6026461481
606205.1195	1.60023482	1	79	3	10	1	1	606205.5196	0.6025633609
606206.7198	1.600201599	1	80	3	9	2	1	606207.1198	0.6026540074
606208.32	1.600244862	1	81	3	8	2	1	606208.7201	0.7028899466
606209.9202	1.600240861	1	82	3	7	2	1	606210.3203	0.8028367055
606211.5205	1.600225001	1	83	3	6	1	1	606211.9205	0.7026647471
606213.1207	1.600264748	1	84	3	5	1	1	606213.5208	0.6019794849
606214.721	1.600272909	1	85	3	4	1	1	606215.1211	0.6014997551
606216.3213	1.600239023	1	86	3	3	2	0	606216.7214	0.6010454856
606217.9215	1.600121914	1	87	3	2	1	0	606218.3216	0.5029309253
606219.5217	1.600264689	1	88	3	1	2	0	606219.9218	0.5021510863
606221.122	1.60025101	1	89	6	1	2	1	606221.5221	0.5012471866
606222.7223	1.600236986	1	90	6	2	2	0	606223.1223	0.3009942661
606224.3225	1.600113696	1	91	6	3	1	0	606224.7226	0.3026290437
606225.9226	1.600223379	1	92	6	4	1	1	606226.3227	0.3030458877
606227.5229	1.60021274	1	93	6	5	1	1	606227.9229	0.3028480905
606229.1231	1.600199957	1	94	6	6	2	0	606229.5232	0.4023981079
606230.7234	1.600225841	1	95	6	7	1	0	606231.1234	0.4027276083
606232.3236	1.60022376	1	96	6	8	2	0	606232.7237	0.5027566226
606233.9239	1.600224699	1	97	6	9	2	1	606234.3239	0.5024956672
606235.5241	1.600273307	1	98	6	10	2	1	606235.9242	0.7023695867
606237.1244	1.600181584	1	99	6	11	1	1	606237.5245	0.6016539169
606238.7247	1.600256885	1	100	6	12	1	1	606239.1248	0.601085747
606240.3249	1.600115936	1	101	5	12	1	1	606240.725	0.8027628234
606241.9251	1.600235885	1	102	5	11	2	1	606242.3251	0.6031200471
606243.5253	1.600235362	1	103	5	10	1	1	606243.9254	0.6029657308
606245.1256	1.60022794	1	104	5	9	2	1	606245.5256	0.6028593896
606246.7258	1.60021996	1	105	5	8	1	1	606247.126	0.5024218853
606248.3261	1.600229801	1	106	5	7	1	1	606248.7261	0.5027621284
606249.9263	1.600326708	1	107	5	6	1	1	606250.3264	0.7025117505
606251.5266	1.600224121	1	108	5	5	1	0	606251.9266	0.4027234887
606253.1268	1.600209036	1	109	5	4	2	0	606253.5268	0.4028719878
606254.727	1.600296425	1	110	5	3	2	1	606255.1272	0.4010229895
606256.3273	1.600263572	1	111	5	2	2	0	606256.7274	0.4010180933
606257.9276	1.600237123	1	112	5	1	1	0	606258.3277	0.4009762646
606259.5279	1.600095451	1	113	3	1	2	0	606259.9279	0.4005714048
606261.128	1.600246764	1	114	3	2	2	1	606261.528	0.3024903523
606262.7282	1.60024026	1	115	3	3	1	0	606263.1283	0.4030107141
606264.3286	1.600152	1	116	3	4	2	0	606264.7285	0.7030308878
606265.9287	1.600229261	1	117	3	5	1	1	606266.3288	0.602810549
606267.529	1.60021156	1	118	3	6	1	1	606267.929	0.6027062475
606269.1292	1.600235039	1	119	3	7	1	1	606269.5293	0.6028236491
606270.7294	1.600248301	1	120	3	8	1	1	606271.1295	0.6028726285
606272.3297	1.600268303	1	121	3	9	1	1	606272.7298	0.6024411503
606273.9299	1.600260146	1	122	3	10	1	1	606274.33	0.6025271274
606275.5302	1.600306655	1	123	3	11	1	1	606275.9302	0.7025115275
606277.1305	1.600271669	1	124	3	12	1	1	606277.5305	0.6016375183
606278.7308	1.600260187	1	125	1	12	2	1	606279.1308	0.6009898887
606280.331	1.600089091	1	126	1	11	2	1	606280.7311	0.502899543
606281.9311	1.600223299	1	127	1	10	1	1	606282.3312	0.6030777113
606283.5314	1.600244902	1	128	1	9	1	1	606283.9314	0.6031091131
606285.1316	1.600233182	1	129	1	8	1	1	606285.5317	0.6029200319
606286.7319	1.600224802	1	130	1	7	2	1	606287.1319	0.602432049
606288.3322	1.600214745	1	131	1	6	1	1	606288.7322	0.602875529
606289.9325	1.60024854	1	132	1	5	1	1	606290.3324	0.8007543681
606291.5326	1.600213979	1	133	1	4	2	1	606291.9326	0.7027371735
606293.1328	1.600255006	1	134	1	3	1	0	606293.5329	0.7020749092
606294.7331	1.600217399	1	135	1	2	1	1	606295.1332	0.5010523269
606296.3334	1.600220981	1	136	1	1	1	1	606296.7334	0.7012301073
606297.9336	1.600345545	1	137	4	1	1	0	606298.3337	0.6012569073
606299.5339	1.600281189	1	138	4	2	1	1	606299.934	0.701348645
606301.1342	1.600247725	1	139	4	3	2	1	606301.5342	0.6007129087
606302.7344	1.600214298	1	140	4	4	2	0	606303.1345	0.5009948048
606304.3346	1.608572559	1	141	4	5	2	1	606304.7346	0.4026514299
606305.9431	1.60021862	1	142	4	6	1	1	606306.3432	0.4030895107
606307.5434	1.600228823	1	143	4	7	1	1	606307.9435	0.5027545269
606309.1436	1.600278109	1	144	4	8	1	1	606309.5437	0.6025377251
606310.7439	1.600291529	1	145	4	9	2	1	606311.144	0.5009532915
606312.3442	1.600107594	1	146	4	10	1	1	606312.7443	0.5010097846
606313.9445	1.600107675	1	147	4	11	1	1	606314.3444	0.5028219495
606315.5446	1.600236219	1	148	4	12	1	1	606315.9447	0.5030187495
606317.1448	1.600250464	1	149	7	13	3	n/a	606317.5449	n/a
606318.7451	1.600211658	1	150	7	13	3	n/a	606319.1451	n/a
606320.3453	1.60023542	1	151	7	13	3	n/a	606320.7454	n/a
606321.9456	1.600353826	1	152	7	13	3	n/a	606322.3456	n/a
