onset	duration	run_number	trial_number	spatial_frequency	michelson_contrast	probe_orientation	response_correctness	probe_time	reaction_time
1001.340592	1.5999012	1	1	2	12	1	1	1001.74063	0.5014739
1002.940493	1.5998138	1	2	2	11	1	0	1003.34044	0.3013315
1004.540338	1.599836478	1	3	2	10	2	0	1004.94025	0.1014143
1006.140118	1.599666	1	4	2	9	1	1	1006.540066	0.5013641
1007.739924	1.5998193	1	5	2	8	2	1	1008.139675	0.5030428
1009.339734	1.5998263	1	6	2	7	2	1	1009.73954	0.6004985
1010.93954	1.5997897	1	7	2	6	1	1	1011.339517	0.5014564
1012.53936	1.5998126	1	8	2	5	2	0	1012.939299	0.4016899
1014.139164	1.5996536	1	9	2	4	1	1	1014.53907	0.6012321
1015.738975	1.5998154	1	10	2	3	1	0	1016.138924	0.6009642
1017.338768	1.599828	1	11	2	2	2	1	1017.738739	0.7048006
1018.93849	1.5998767	1	12	2	1	2	0	1019.338342	0.4008369
1020.538398	1.5998162	1	13	1	1	2	0	1020.938349	0.5006283
1022.1382	1.5998097	1	14	1	2	1	0	1022.538157	0.4012163
1023.738009	1.5998292	1	15	1	3	1	1	1024.137977	0.4012006
1025.337819	1.59982	1	16	1	4	2	0	1025.737772	0.3011728
1026.937567	1.5997394	1	17	1	5	2	1	1027.337629	0.800017
1028.537442	1.5998084	1	18	1	6	1	1	1028.937385	0.4004735
1030.137249	1.599819	1	19	1	7	1	1	1030.537009	0.500746
1031.737049	1.5998222	1	20	1	8	2	1	1032.137005	0.6003588
1033.336861	1.5998257	1	21	1	9	1	1	1033.736744	0.5006255
1034.936506	1.5999894	1	22	1	10	2	1	1035.336624	0.5006849
1036.536466	1.5998308	1	23	1	11	2	1	1036.936431	0.5005602
1038.136286	1.5998209	1	24	1	12	2	1	1038.536245	0.5005673
1039.736093	1.599818	1	25	1	12	1	1	1040.136046	0.500113
1041.335901	1.5996597	1	26	1	11	1	1	1041.73567	0.6007325
1042.935671	1.5998482	1	27	1	10	1	1	1043.335661	0.5005562
1044.535505	1.5998188	1	28	1	9	2	1	1044.935457	0.6005484
1046.135313	1.5998093	1	29	1	8	1	1	1046.535271	0.5005703
1047.73512	1.5998149	1	30	1	7	2	1	1048.135079	0.6004886
1049.334928	1.5996572	1	31	1	6	1	1	1049.734928	0.6004342
1050.934572	1.5998227	1	32	1	5	2	1	1051.334697	0.6000543
1052.534348	1.6000115	1	33	1	4	1	1	1052.934344	0.7002612
1054.134341	1.5998415	1	34	1	3	2	0	1054.534302	0.7005918
1055.734177	1.599816	1	35	1	2	2	0	1056.134134	0.4001116
1057.333985	1.5996544	1	36	1	1	2	1	1057.733936	0.3005933
1058.933761	1.5998123	1	37	4	1	2	0	1059.333745	0.300594
1060.533596	1.5997936	1	38	4	2	1	1	1060.93341	0.3007791
1062.133259	1.5999727	1	39	4	3	2	1	1062.533376	0.4005777
1063.733217	1.5998223	1	40	4	4	1	1	1064.133178	0.40058
1065.333019	1.5998218	1	41	4	5	1	0	1065.733	0.4006319
1066.932842	1.5998728	1	42	4	6	2	1	1067.332784	0.6005148
1068.532682	1.599669766	1	43	4	7	2	1	1068.932443	0.7007346
1070.132447	1.5998206	1	44	4	8	1	0	1070.532408	0.6003667
1071.732254	1.5998272	1	45	4	9	2	1	1072.132211	0.6005713
1073.332055	1.5998334	1	46	4	10	2	1	1073.732019	0.700576
1074.931878	1.5998155	1	47	4	11	2	1	1075.331784	0.6002649
1076.531685	1.5997861	1	48	4	12	2	1	1076.931634	0.6005667
1078.131505	1.5998448	1	49	3	12	2	1	1078.531444	0.6001051
1079.7313	1.5998201	1	50	3	11	2	1	1080.131188	0.7003399
1081.330956	1.5999887	1	51	3	10	1	1	1081.731111	0.6005237543
1082.930841	1.599946168	1	52	3	9	1	1	1083.33087	0.5006999
1084.530726	1.599868368	1	53	3	8	2	1	1084.930717	0.6004865
1086.130454	1.5998613	1	54	3	7	1	1	1086.53048	0.6007537
1087.730346	1.599723	1	55	3	6	1	1	1088.130133	0.7007416
1089.330149	1.5998206	1	56	3	5	1	n/a	1089.730091	n/a
1090.929961	1.5996544	1	57	3	4	2	n/a	1091.329785	n/a
1092.529791	1.5997215	1	58	3	3	2	n/a	1092.92972	n/a
1094.129559	1.5998262	1	59	3	2	2	n/a	1094.529471	n/a
1095.729361	1.599891434	1	60	3	1	1	n/a	1096.129335	n/a
1097.329176	1.5998192	1	61	2	1	1	n/a	1097.728969	n/a
1098.928986	1.5998203	1	62	2	2	2	n/a	1099.328894	n/a
1100.5286	1.5999722	1	63	2	3	1	n/a	1100.928746	n/a
1102.128602	1.5998214	1	64	2	4	1	n/a	1102.528559	n/a
1103.728406	1.5998193	1	65	2	5	2	n/a	1104.12832	n/a
1105.328177	1.5998687	1	66	2	6	1	n/a	1105.728182	n/a
1106.928034	1.5996818	1	67	2	7	2	n/a	1107.327799	n/a
1108.527683	1.5999785	1	68	2	8	2	n/a	1108.927816	n/a
1110.127674	1.5997542	1	69	2	9	2	n/a	1110.527609	n/a
1111.727514	1.599770076	1	70	2	10	1	n/a	1112.127416	n/a
1113.327223	1.5998654	1	71	2	11	2	n/a	1113.727247	n/a
1114.927094	1.59964	1	72	2	12	2	n/a	1115.32703	n/a
1116.526852	1.5998561	1	73	4	12	2	n/a	1116.926839	n/a
1118.126701	1.599812	1	74	4	11	2	n/a	1118.526664	n/a
1119.726437	1.599887	1	75	4	10	2	n/a	1120.126458	n/a
1121.326326	1.5996662	1	76	4	9	1	n/a	1121.726259	n/a
1122.926115	1.5998154	1	77	4	8	1	n/a	1123.326068	n/a
1124.525943	1.5997637	1	78	4	7	2	n/a	1124.925679	n/a
1126.125734	1.5997068	1	79	4	6	1	n/a	1126.525515	n/a
1127.725564	1.599788976	1	80	4	5	1	n/a	1128.125444	n/a
1129.325337	1.5997956	1	81	4	4	1	n/a	1129.725301	n/a
1130.925166	1.5998182	1	82	4	3	1	n/a	1131.325116	n/a
1132.524968	1.5998146	1	83	4	2	2	n/a	1132.924757	n/a
1134.124728	1.5996503	1	84	4	1	2	n/a	1134.524561	n/a
1135.724579	1.5998178	1	85	3	1	1	n/a	1136.124527	n/a
1137.324377	1.5998225	1	86	3	2	1	n/a	1137.724343	n/a
1138.924211	1.5998241	1	87	3	3	2	n/a	1139.324155	n/a
1140.524004	1.5998226	1	88	3	4	1	n/a	1140.923957	n/a
1142.123813	1.5996572	1	89	3	5	2	n/a	1142.5236	n/a
1143.723589	1.599836	1	90	3	6	2	n/a	1144.123507	n/a
1145.323409	1.5998163	1	91	3	7	1	n/a	1145.723389	n/a
1146.923223	1.5998154	1	92	3	8	1	n/a	1147.323168	n/a
1148.523033	1.5998137	1	93	3	9	1	n/a	1148.922975	n/a
1150.122678	1.5998193	1	94	3	10	2	n/a	1150.522784	n/a
1151.722636	1.5997733	1	95	3	11	1	n/a	1152.122599	n/a
1153.32246	1.5998176	1	96	3	12	1	n/a	1153.722405	n/a
1154.922081	1.5999865	1	97	5	12	1	n/a	1155.322157	n/a
1156.522078	1.5998237	1	98	5	11	1	n/a	1156.921978	n/a
1158.121891	1.5998268	1	99	5	10	1	n/a	1158.52185	n/a
1159.721695	1.5998237	1	100	5	9	1	n/a	1160.121662	n/a
1161.321506	1.599761	1	101	5	8	2	n/a	1161.721307	n/a
1162.921303	1.5998275	1	102	5	7	2	n/a	1163.32127	n/a
1164.521167	1.5997799	1	103	5	6	1	n/a	1164.921079	n/a
1166.120924	1.5998289	1	104	5	5	2	n/a	1166.520883	n/a
1167.72074	1.599872912	1	105	5	4	1	n/a	1168.120744	n/a
1169.320599	1.599759932	1	106	5	3	1	n/a	1169.720341	n/a
1170.920196	1.600030212	1	107	5	2	2	n/a	1171.320271	n/a
1172.520155	1.5998114	1	108	5	1	2	n/a	1172.920108	n/a
1174.119979	1.5998044	1	109	5	1	1	n/a	1174.51993	n/a
1175.719773	1.5998307	1	110	5	2	2	n/a	1176.119739	n/a
1177.319606	1.5996119	1	111	5	3	1	n/a	1177.719374	n/a
1178.919235	1.5999833	1	112	5	4	2	n/a	1179.319349	n/a
1180.5192	1.5998157	1	113	5	5	2	n/a	1180.919163	n/a
1182.119025	1.599643	1	114	5	6	2	n/a	1182.518979	n/a
1183.71883	1.5998087	1	115	5	7	2	n/a	1184.118766	n/a
1185.318627	1.5996509	1	116	5	8	2	n/a	1185.71839	n/a
1186.918277	1.5999343	1	117	5	9	1	n/a	1187.318391	n/a
1188.518242	1.5998267	1	118	5	10	1	n/a	1188.918192	n/a
1190.118052	1.5998132	1	119	5	11	2	n/a	1190.518008	n/a
1191.717856	1.5998158	1	120	5	12	1	n/a	1192.117802	n/a
1193.317674	1.5996314	1	121	6	12	1	n/a	1193.717645	n/a
1194.917456	1.5998216	1	122	6	11	2	n/a	1195.317407	n/a
1196.517258	1.5998286	1	123	6	10	2	n/a	1196.917217	n/a
1198.117088	1.5997735	1	124	6	9	2	n/a	1198.517022	n/a
1199.716884	1.5998107	1	125	6	8	1	n/a	1200.116836	n/a
1201.316675	1.5998425	1	126	6	7	1	n/a	1201.716644	n/a
1202.916495	1.5998221	1	127	6	6	1	n/a	1203.316457	n/a
1204.516308	1.5998064	1	128	6	5	2	n/a	1204.916219	n/a
1206.115967	1.5999751	1	129	6	4	1	n/a	1206.51606	n/a
1207.715985	1.59977221	1	130	6	3	2	n/a	1208.115881	n/a
1209.31574	1.5998279	1	131	6	2	2	n/a	1209.715693	n/a
1210.915562	1.5998039	1	132	6	1	1	n/a	1211.315511	n/a
1212.515356	1.5996403	1	133	6	1	1	n/a	1212.915152	n/a
1214.115114	1.5998732	1	134	6	2	1	n/a	1214.515115	n/a
1215.71498	1.5996926	1	135	6	3	1	n/a	1216.11493	n/a
1217.31478	1.599822	1	136	6	4	1	n/a	1217.714737	n/a
1218.914424	1.5999836	1	137	6	5	2	n/a	1219.314574	n/a
1220.514413	1.5998202	1	138	6	6	1	n/a	1220.914351	n/a
1222.114198	1.5998296	1	139	6	7	1	n/a	1222.514013	n/a
1223.714024	1.599644	1	140	6	8	2	n/a	1224.113758	n/a
1225.313767	1.5999144	1	141	6	9	1	n/a	1225.71375	n/a
1226.913622	1.5997839	1	142	6	10	1	n/a	1227.313435	n/a
1228.513244	1.6000094	1	143	6	11	2	n/a	1228.913238	n/a
1230.113265	1.5998161	1	144	6	12	1	n/a	1230.513193	n/a
