onset	duration	run_number	trial_number	spatial_frequency	michelson_contrast	probe_orientation	response_correctness	probe_time	reaction_time
108882.4525	1.5999573	11	1	7	13	3	n/a	108882.8525	n/a
108884.0524	1.5998007	11	2	7	13	3	n/a	108884.4524	n/a
108885.6522	1.5997901	11	3	7	13	3	n/a	108886.0521	n/a
108887.252	1.5997774	11	4	7	13	3	n/a	108887.6519	n/a
108888.8517	1.599778	11	5	6	12	2	1	108889.2517	0.5018266
108890.4515	1.5997954	11	6	6	11	1	1	108890.8515	0.5012085
108892.0513	1.5997791	11	7	6	10	1	1	108892.4512	0.6012574
108893.6511	1.5997835	11	8	6	9	1	1	108894.051	0.5012652
108895.2508	1.599725793	11	9	6	8	1	1	108895.6508	0.6029692
108896.8506	1.5997781	11	10	6	7	2	1	108897.2505	0.501033
108898.4504	1.5997822	11	11	6	6	1	1	108898.8503	0.4046441
108900.0501	1.5997869	11	12	6	5	1	0	108900.4501	0.300536
108901.6499	1.5997797	11	13	6	4	1	1	108902.0498	0.3008511
108903.2497	1.5997846	11	14	6	3	1	1	108903.6496	0.2005063
108904.8495	1.599765	11	15	6	2	1	1	108905.2494	0.200537
108906.4492	1.5997762	11	16	6	1	2	1	108906.8491	0.3011417
108908.049	1.5997745	11	17	2	1	1	0	108908.4489	0.4046104
108909.6488	1.5997776	11	18	2	2	1	1	108910.0487	0.5005042
108911.2485	1.5998385	11	19	2	3	1	0	108911.6485	0.6006375
108912.8483	1.5997984	11	20	2	4	2	0	108913.2482	0.4011268
108914.4481	1.5997907	11	21	2	5	1	0	108914.848	0.3006132
108916.0478	1.5997864	11	22	2	6	2	1	108916.4478	0.5010556
108917.6476	1.5997815	11	23	2	7	2	1	108918.0475	0.5010526
108919.2474	1.5997952	11	24	2	8	1	1	108919.6473	0.4005314
108920.8471	1.599797	11	25	2	9	2	1	108921.2471	0.5006042
108922.4469	1.5997774	11	26	2	10	2	1	108922.8469	0.5004394
108924.0467	1.5997798	11	27	2	11	1	1	108924.4466	0.5005517
108925.6464	1.59979	11	28	2	12	2	1	108926.0464	0.5004804
108927.2462	1.5997481	11	29	4	12	2	1	108927.6461	0.4006733
108928.846	1.5997812	11	30	4	11	1	1	108929.2459	0.4004957
108930.4457	1.5997934	11	31	4	10	1	1	108930.8457	0.5005831
108932.0454	1.5998365	11	32	4	9	2	1	108932.4454	0.40051
108933.6453	1.5997778	11	33	4	8	2	1	108934.0452	0.6004207
108935.245	1.5997815	11	34	4	7	2	1	108935.645	0.5005182
108936.8448	1.5997849	11	35	4	6	1	1	108937.2448	0.500414
108938.4446	1.5997779	11	36	4	5	2	0	108938.8445	0.3005836
108940.0443	1.5998136	11	37	4	4	2	0	108940.4443	0.3006839
108941.6441	1.5997703	11	38	4	3	2	1	108942.044	0.4006066
108943.2439	1.5997739	11	39	4	2	2	0	108943.6438	0.3006328
108944.8436	1.5998274	11	40	4	1	1	1	108945.2436	0.5005636
108946.4434	1.5997824	11	41	1	1	1	0	108946.8434	0.4011927
108948.0432	1.5997985	11	42	1	2	1	0	108948.4431	0.3005369
108949.643	1.5997781	11	43	1	3	1	0	108950.0429	0.600448
108951.2427	1.5997768	11	44	1	4	1	0	108951.6427	0.7003684
108952.8425	1.5997906	11	45	1	5	1	1	108953.2425	0.9004864
108954.4423	1.5997991	11	46	1	6	2	1	108954.8422	0.9005491
108956.042	1.5997366	11	47	1	7	2	1	108956.442	0.8005539
108957.6418	1.599576	11	48	1	8	1	1	108958.0418	0.8005039
108959.2414	1.5999752	11	49	1	9	1	0	108959.6414	0.6007286
108960.8414	1.5997881	11	50	1	10	1	1	108961.2413	0.6005576
108962.4411	1.5997979	11	51	1	11	1	1	108962.8411	0.5005094436
108964.0409	1.5997991	11	52	1	12	1	1	108964.4409	0.6000634
108965.6407	1.5997687	11	53	2	12	1	1	108966.0406	0.5005726
108967.2404	1.5997697	11	54	2	11	2	1	108967.6404	0.5005543
108968.8402	1.5997781	11	55	2	10	1	1	108969.2402	0.500534
108970.44	1.5997996	11	56	2	9	2	1	108970.8397	0.5007073
108972.0397	1.5998165	11	57	2	8	1	1	108972.4397	0.4005546
108973.6395	1.5997845	11	58	2	7	1	1	108974.0395	0.7005614
108975.2393	1.5996118	11	59	2	6	1	1	108975.6392	0.7005057
108976.8391	1.5997685	11	60	2	5	1	1	108977.239	0.6004754872
108978.4388	1.5997676	11	61	2	4	1	1	108978.8388	0.6005512
108980.0386	1.5997805	11	62	2	3	2	0	108980.4385	0.7012832
108981.6384	1.5997579	11	63	2	2	1	0	108982.0383	0.6005226
108983.2381	1.599791	11	64	2	1	2	1	108983.638	0.4005615
108984.8379	1.599714044	11	65	5	1	2	1	108985.2378	0.5005394
108986.4377	1.5997854	11	66	5	2	2	1	108986.8376	0.4006253
108988.0374	1.5998247	11	67	5	3	1	0	108988.4373	0.4006879
108989.6372	1.5998049	11	68	5	4	1	1	108990.0371	0.4005915
108991.237	1.5997402	11	69	5	5	1	1	108991.6369	0.5005603
108992.8367	1.5996883	11	70	5	6	2	1	108993.2367	0.5005777
108994.4365	1.5997712	11	71	5	7	2	1	108994.8364	0.6005731
108996.0363	1.5997617	11	72	5	8	1	1	108996.4362	0.6005394
108997.636	1.5997914	11	73	5	9	1	1	108998.036	0.6005349
108999.2358	1.5997928	11	74	5	10	2	1	108999.6358	0.600078
109000.8355	1.5998233	11	75	5	11	2	1	109001.2355	0.5006481
109002.4353	1.5998108	11	76	5	12	1	1	109002.8353	0.400578
109004.0351	1.5997755	11	77	3	12	2	1	109004.4351	0.5005391
109005.6349	1.5997887	11	78	3	11	2	1	109006.0348	0.4005509
109007.2347	1.5997807	11	79	3	10	1	1	109007.6346	0.4005659
109008.8344	1.5997829	11	80	3	9	2	1	109009.2344	0.4005944
109010.4342	1.5998056	11	81	3	8	1	1	109010.8341	0.4001209
109012.034	1.5997868	11	82	3	7	1	1	109012.4339	0.5005648
109013.6337	1.5998061	11	83	3	6	2	1	109014.0337	0.3006107
109015.2335	1.5997885	11	84	3	5	2	0	109015.6335	0.4005902
109016.8333	1.5997698	11	85	3	4	1	1	109017.2332	0.5005163
109018.433	1.5997821	11	86	3	3	2	1	109018.833	0.6005359
109020.0328	1.5997628	11	87	3	2	2	0	109020.4328	0.6005353
109021.6326	1.5997924	11	88	3	1	2	1	109022.0325	0.400556
109023.2323	1.5997839	11	89	6	1	1	1	109023.6323	0.4005095
109024.8321	1.599813	11	90	6	2	1	0	109025.2321	0.4005487
109026.4319	1.599818678	11	91	6	3	1	1	109026.8318	0.6005573
109028.0316	1.5997632	11	92	6	4	2	1	109028.4316	0.6000479
109029.6312	1.5998336	11	93	6	5	1	0	109030.0314	0.6004936
109031.2312	1.5997909	11	94	6	6	1	1	109031.6311	0.700504
109032.8309	1.5997828	11	95	6	7	2	1	109033.2307	0.6002689
109034.4307	1.5997844	11	96	6	8	2	1	109034.8306	0.7005014
109036.0305	1.5997926	11	97	6	9	1	1	109036.4304	0.5005226
109037.6302	1.5997701	11	98	6	10	1	1	109038.0302	0.500531
109039.23	1.599801	11	99	6	11	1	1	109039.6299	0.5005454
109040.8298	1.5997565	11	100	6	12	2	1	109041.2297	0.6005382
109042.4296	1.5997809	11	101	5	12	1	1	109042.8295	0.6005205
109044.0293	1.5997794	11	102	5	11	1	0	109044.4293	0.400559
109045.6291	1.599772	11	103	5	10	2	0	109046.0291	0.4005787
109047.2289	1.5997734	11	104	5	9	1	1	109047.6288	0.5001125
109048.8287	1.5997402	11	105	5	8	2	1	109049.2286	0.5005871
109050.4284	1.5997639	11	106	5	7	2	1	109050.8284	0.600558
109052.0282	1.5997779	11	107	5	6	1	1	109052.4281	0.7003978
109053.628	1.5997941	11	108	5	5	1	0	109054.0279	0.5006045
109055.2276	1.5999413	11	109	5	4	2	0	109055.6277	0.4005159308
109056.8275	1.5997781	11	110	5	3	2	1	109057.2274	0.5002037
109058.4273	1.5997792	11	111	5	2	2	0	109058.8272	0.6005076
109060.027	1.5996662	11	112	5	1	2	0	109060.427	0.5005306
109061.6268	1.5997926	11	113	3	1	1	0	109062.0267	0.5005414
109063.2266	1.5997948	11	114	3	2	2	0	109063.6265	0.4007222
109064.8263	1.5997873	11	115	3	3	1	1	109065.2263	0.3005625
109066.4261	1.5997803	11	116	3	4	1	1	109066.8259	0.4006629
109068.0259	1.5997138	11	117	3	5	1	1	109068.4258	0.3001244
109069.6256	1.5997642	11	118	3	6	2	1	109070.0256	0.500667
109071.2254	1.5997831	11	119	3	7	2	1	109071.6253	0.700568
109072.8252	1.5997283	11	120	3	8	2	1	109073.2251	0.600544
109074.4249	1.5998113	11	121	3	9	2	1	109074.8247	0.5007004
109076.0247	1.5997964	11	122	3	10	1	1	109076.4247	0.4005202
109077.6245	1.5997731	11	123	3	11	2	1	109078.0244	0.5005636
109079.2242	1.5997424	11	124	3	12	1	1	109079.6242	0.4005752
109080.824	1.5997906	11	125	1	12	2	1	109081.224	0.8004871
109082.4238	1.5997725	11	126	1	11	2	0	109082.8237	0.400227
109084.0235	1.5997847	11	127	1	10	2	0	109084.4235	0.2002074
109085.6233	1.5997702	11	128	1	9	1	0	109086.0233	0.000604300003
109087.2231	1.5997969	11	129	1	8	1	1	109087.623	0.0006072999968
109088.8228	1.5998838	11	130	1	7	2	1	109089.2228	0.2005785
109090.4226	1.5997887	11	131	1	6	2	0	109090.8226	0.2005872
109092.0224	1.599735344	11	132	1	5	2	1	109092.4222	0.4007419
109093.6222	1.5997274	11	133	1	4	2	1	109094.0221	1.0004751
109095.2219	1.5997859	11	134	1	3	2	0	109095.6219	0.5005489
109096.8217	1.599739	11	135	1	2	2	0	109097.2215	0.3007086
109098.4215	1.5997789	11	136	1	1	2	1	109098.8214	0.3005793
109100.0212	1.599793	11	137	4	1	1	1	109100.4211	0.2007249
109101.621	1.5997978	11	138	4	2	2	0	109102.0209	0.3007741
109103.2208	1.5997785	11	139	4	3	1	0	109103.6207	0.4005452
109104.8206	1.5998298	11	140	4	4	1	0	109105.2205	0.4005866
109106.4203	1.5997871	11	141	4	5	2	0	109106.8203	0.3005505
109108.0201	1.599728296	11	142	4	6	1	1	109108.42	0.4007429
109109.6199	1.5997761	11	143	4	7	1	1	109110.0198	0.4005539
109111.2196	1.5997799	11	144	4	8	2	1	109111.6195	0.5005753
109112.8194	1.599788	11	145	4	9	1	1	109113.2193	0.4006439
109114.4192	1.5997796	11	146	4	10	1	1	109114.8189	0.5007039
109116.0189	1.5997486	11	147	4	11	1	1	109116.4189	0.6005142
109117.6187	1.5997374	11	148	4	12	1	0	109118.0186	0.7005224
109119.2184	1.599856	11	149	7	13	3	n/a	109119.6184	n/a
109120.8183	1.599743465	11	150	7	13	3	n/a	109121.2182	n/a
109122.418	1.5997767	11	151	7	13	3	n/a	109122.8179	n/a
109124.0177	1.59983	11	152	7	13	3	n/a	109124.4177	n/a
