onset	duration	run_number	trial_number	spatial_frequency	michelson_contrast	probe_orientation	response_correctness	probe_time	reaction_time
108055.8221	1.5998062	8	1	7	13	3	n/a	108056.2221	n/a
108057.422	1.5997609	8	2	7	13	3	n/a	108057.8219	n/a
108059.0217	1.5997845	8	3	7	13	3	n/a	108059.4217	n/a
108060.6215	1.5997762	8	4	7	13	3	n/a	108061.0214	n/a
108062.2213	1.5997953	8	5	6	12	1	1	108062.6212	0.5018367
108063.821	1.5997625	8	6	6	11	1	1	108064.221	0.5011488
108065.4208	1.5997781	8	7	6	10	2	1	108065.8208	0.601273
108067.0205	1.5998156	8	8	6	9	2	1	108067.4205	0.5011868
108068.6203	1.5997866	8	9	6	8	2	1	108069.0203	0.4027876
108070.2201	1.5997747	8	10	6	7	1	1	108070.6201	0.4013243
108071.8198	1.599839658	8	11	6	6	1	1	108072.2198	0.500962
108073.4196	1.5997799	8	12	6	5	2	0	108073.8196	0.4047421
108075.0194	1.599802	8	13	6	4	1	0	108075.4194	0.3011482
108076.619	1.5999364	8	14	6	3	2	1	108077.0191	0.2047186
108078.2189	1.5997912	8	15	6	2	2	0	108078.6189	0.2007945
108079.8187	1.5997825	8	16	6	1	1	0	108080.2187	0.3011846
108081.4185	1.5997604	8	17	2	1	2	0	108081.8185	0.4005466
108083.0183	1.5997513	8	18	2	2	2	1	108083.4182	0.401124
108084.618	1.5997796	8	19	2	3	2	0	108085.0179	0.3006095
108086.2178	1.5997775	8	20	2	4	2	1	108086.6177	0.4006928
108087.8176	1.5997881	8	21	2	5	2	0	108088.2175	0.3012359
108089.4173	1.5997787	8	22	2	6	2	0	108089.8173	0.400621
108091.0171	1.5997783	8	23	2	7	2	1	108091.417	0.4005573
108092.6169	1.5997842	8	24	2	8	2	1	108093.0168	0.60046
108094.2166	1.5997772	8	25	2	9	1	1	108094.6166	0.6010977
108095.8164	1.5997821	8	26	2	10	1	1	108096.2163	0.5005052
108097.4162	1.5997776	8	27	2	11	2	1	108097.8161	0.4004724
108099.0159	1.5997728	8	28	2	12	2	1	108099.4159	0.5005011
108100.6157	1.5997379	8	29	4	12	1	1	108101.0157	0.4006523
108102.2155	1.5998066	8	30	4	11	2	0	108102.6154	0.5005127
108103.8152	1.5997978	8	31	4	10	2	1	108104.2152	0.5004097
108105.4151	1.5997125	8	32	4	9	2	1	108105.815	0.50047
108107.0148	1.5997402	8	33	4	8	1	1	108107.4148	0.5004322436
108108.6145	1.599774	8	34	4	7	2	1	108109.0145	0.3005109
108110.2143	1.5998279	8	35	4	6	2	1	108110.6143	0.3004962
108111.8141	1.5997828	8	36	4	5	2	0	108112.214	0.2005761
108113.4138	1.5997985	8	37	4	4	2	1	108113.8138	0.3006033
108115.0136	1.5996455	8	38	4	3	1	1	108115.4136	0.1005526
108116.6134	1.599869204	8	39	4	2	2	1	108117.0133	0.3005807
108118.2132	1.5997777	8	40	4	1	1	1	108118.6131	0.4004839
108119.8129	1.5997772	8	41	1	1	1	0	108120.2129	0.400556
108121.4127	1.5997813	8	42	1	2	2	0	108121.8127	0.3005179
108123.0125	1.5997803	8	43	1	3	2	0	108123.4124	0.4005463
108124.6122	1.5997835	8	44	1	4	2	1	108125.0122	0.3005995
108126.212	1.5997832	8	45	1	5	1	0	108126.6119	0.3006521
108127.8118	1.5997905	8	46	1	6	2	1	108128.2117	0.5005358
108129.4115	1.5997723	8	47	1	7	1	1	108129.8115	0.7005123
108131.0113	1.5997784	8	48	1	8	2	0	108131.4113	0.9005044
108132.6111	1.5997845	8	49	1	9	2	1	108133.011	0.7005249
108134.2109	1.599749584	8	50	1	10	2	1	108134.6108	0.6005598
108135.8106	1.5997718	8	51	1	11	1	1	108136.2106	0.6005298
108137.4104	1.5997919	8	52	1	12	1	1	108137.8103	0.6005266
108139.0102	1.5997841	8	53	2	12	1	1	108139.4101	0.5005444
108140.6099	1.5997866	8	54	2	11	2	1	108141.0099	0.5002693
108142.2097	1.5997867	8	55	2	10	2	1	108142.6096	0.5005313
108143.8094	1.5998145	8	56	2	9	2	1	108144.2094	0.5005467
108145.4092	1.5997827	8	57	2	8	2	1	108145.8092	0.6006379
108147.009	1.5997736	8	58	2	7	2	1	108147.4089	0.6005313
108148.6088	1.5997221	8	59	2	6	1	1	108149.0087	0.6001948
108150.2084	1.5999221	8	60	2	5	2	0	108150.6085	0.500584
108151.8083	1.599782	8	61	2	4	1	0	108152.2082	0.4004551
108153.4081	1.5997884	8	62	2	3	1	1	108153.808	0.4005909
108155.0078	1.5997734	8	63	2	2	2	1	108155.4078	0.5005568
108156.6076	1.5997908	8	64	2	1	2	0	108157.0075	0.3005293
108158.2074	1.5997658	8	65	5	1	2	0	108158.6073	0.4005473
108159.8071	1.5998189	8	66	5	2	1	0	108160.2071	0.3005922
108161.4069	1.5997733	8	67	5	3	2	1	108161.8068	0.5005513
108163.0067	1.5998033	8	68	5	4	2	0	108163.4066	0.5005583
108164.6065	1.5997866	8	69	5	5	1	0	108165.0064	0.4005568
108166.2062	1.5996273	8	70	5	6	1	1	108166.6062	0.6005452
108167.8059	1.5998531	8	71	5	7	1	1	108168.2059	0.5005275
108169.4057	1.5998656	8	72	5	8	2	1	108169.8057	0.400558
108171.0055	1.5997912	8	73	5	9	1	1	108171.4055	0.5006161
108172.6053	1.5997186	8	74	5	10	2	1	108173.0052	0.5005529
108174.2051	1.5998145	8	75	5	11	2	1	108174.605	0.6005229
108175.8048	1.599806	8	76	5	12	1	1	108176.2048	0.5005484
108177.4046	1.5997764	8	77	3	12	1	1	108177.8046	0.5004742
108179.0044	1.5997604	8	78	3	11	2	1	108179.4043	0.4000895
108180.6041	1.5997987	8	79	3	10	2	1	108181.0041	0.6000753
108182.2039	1.5998326	8	80	3	9	2	1	108182.6038	0.5005304
108183.8035	1.5999657	8	81	3	8	2	1	108184.2036	0.600603
108185.4035	1.5997638	8	82	3	7	1	1	108185.8034	0.5005282
108187.0032	1.5997863	8	83	3	6	1	1	108187.4032	0.5005595
108188.603	1.5997887	8	84	3	5	2	1	108189.0028	0.3006784
108190.2027	1.5997914	8	85	3	4	2	0	108190.6027	0.0005853000039
108191.8025	1.599802	8	86	3	3	2	1	108192.2023	0.0003815999953
108193.4023	1.599821582	8	87	3	2	1	1	108193.8022	0.2005533
108195.0021	1.5996505	8	88	3	1	2	1	108195.402	0.2005652
108196.6017	1.5999543	8	89	6	1	1	1	108197.0018	0.3005539
108198.2016	1.599848378	8	90	6	2	1	0	108198.6015	0.4005248
108199.8014	1.5997885	8	91	6	3	1	0	108200.2013	0.4005648
108201.4011	1.5997665	8	92	6	4	2	0	108201.8011	0.3005582
108203.0009	1.5997858	8	93	6	5	1	0	108203.4008	0.4005557
108204.6006	1.5997816	8	94	6	6	1	1	108205.0006	0.3001109
108206.2004	1.5998196	8	95	6	7	1	0	108206.6004	0.3005797
108207.8002	1.5997428	8	96	6	8	1	1	108208.2002	0.3005488
108209.4	1.5997813	8	97	6	9	2	1	108209.7999	0.400556
108210.9997	1.599781	8	98	6	10	2	1	108211.3997	0.600519
108212.5995	1.5997918	8	99	6	11	1	1	108212.9994	0.6000902
108214.1993	1.599763931	8	100	6	12	1	1	108214.5992	0.6005246
108215.7991	1.5997798	8	101	5	12	2	1	108216.199	0.6005334
108217.3987	1.5999351	8	102	5	11	2	1	108217.7988	0.600486
108218.9986	1.5997658	8	103	5	10	2	1	108219.3985	0.5005348
108220.5984	1.5997759	8	104	5	9	2	1	108220.9983	0.7006439
108222.1981	1.5997773	8	105	5	8	1	1	108222.5981	0.5005399
108223.7979	1.5997753	8	106	5	7	2	1	108224.1978	0.6005439
108225.3977	1.5997797	8	107	5	6	1	1	108225.7974	0.7007452
108226.9974	1.5998202	8	108	5	5	1	0	108227.3974	0.500096
108228.5972	1.5997938	8	109	5	4	1	1	108228.9971	0.6005085
108230.197	1.5997751	8	110	5	3	1	0	108230.5969	0.5005622
108231.7967	1.5997747	8	111	5	2	1	1	108232.1967	0.4005588
108233.3965	1.5997825	8	112	5	1	1	1	108233.7964	0.3005585
108234.9962	1.5998086	8	113	3	1	1	0	108235.3962	0.3005705
108236.596	1.5997948	8	114	3	2	2	1	108236.996	0.3005752
108238.1958	1.5997908	8	115	3	3	1	1	108238.5957	0.3005653
108239.7956	1.5997471	8	116	3	4	1	1	108240.1955	0.4006168
108241.3953	1.5998314	8	117	3	5	2	0	108241.7953	0.4005282
108242.995	1.5998473	8	118	3	6	2	1	108243.3951	0.7004798
108244.5949	1.599752131	8	119	3	7	2	1	108244.9948	0.6005791
108246.1946	1.5997753	8	120	3	8	2	1	108246.5946	0.5005726
108247.7944	1.599833	8	121	3	9	2	1	108248.1944	0.6005413
108249.3942	1.5997834	8	122	3	10	2	1	108249.7941	0.6005619
108250.994	1.5997643	8	123	3	11	2	1	108251.3939	0.6004435
108252.5937	1.5997915	8	124	3	12	1	1	108252.9936	0.5005366
108254.1935	1.5997932	8	125	1	12	1	0	108254.5933	0.4006567
108255.7932	1.5997706	8	126	1	11	1	0	108256.1931	0.5005729
108257.393	1.5997805	8	127	1	10	1	1	108257.7929	0.4006016
108258.9928	1.5997955	8	128	1	9	2	1	108259.3927	0.4005501
108260.5925	1.5997823	8	129	1	8	1	1	108260.9925	0.4005397
108262.1923	1.5998041	8	130	1	7	1	0	108262.5923	0.4005522
108263.7921	1.599741553	8	131	1	6	2	1	108264.192	0.4006254
108265.3919	1.599771	8	132	1	5	1	1	108265.7918	0.3006158
108266.9916	1.5996276	8	133	1	4	2	0	108267.3916	0.3005527
108268.5912	1.5999531	8	134	1	3	2	1	108268.9912	0.300547
108270.1912	1.5997861	8	135	1	2	2	0	108270.5911	0.3001339
108271.791	1.5997604	8	136	1	1	2	0	108272.1907	0.2003443
108273.3907	1.5997741	8	137	4	1	1	0	108273.7907	0.2005438
108274.9905	1.5997744	8	138	4	2	1	0	108275.3904	0.4001294
108276.5902	1.5997867	8	139	4	3	2	0	108276.9902	0.3005893
108278.19	1.5998168	8	140	4	4	2	1	108278.59	0.4005703
108279.7898	1.5997224	8	141	4	5	2	1	108280.1897	0.7004938
108281.3894	1.5999804	8	142	4	6	2	1	108281.7895	0.7005438
108282.9894	1.599791969	8	143	4	7	2	1	108283.3893	0.7005073
108284.5891	1.5997855	8	144	4	8	2	1	108284.989	0.6005231
108286.1889	1.5996437	8	145	4	9	1	1	108286.5888	0.5005596
108287.7886	1.599824578	8	146	4	10	1	1	108288.1886	0.5005545
108289.3884	1.5997834	8	147	4	11	1	1	108289.7882	0.500698
108290.9882	1.5997832	8	148	4	12	2	1	108291.3881	0.5005341
108292.5879	1.599779	8	149	7	13	3	n/a	108292.9879	n/a
108294.1877	1.599826556	8	150	7	13	3	n/a	108294.5876	n/a
108295.7875	1.5997458	8	151	7	13	3	n/a	108296.1874	n/a
108297.3872	1.599773	8	152	7	13	3	n/a	108297.7872	n/a
