onset	duration	run_number	trial_number	spatial_frequency	michelson_contrast	probe_orientation	response_correctness	probe_time	reaction_time
107736.3266	1.5999248	7	1	7	13	3	n/a	107736.7267	n/a
107737.9265	1.5997817	7	2	7	13	3	n/a	107738.3265	n/a
107739.5262	1.5998141	7	3	7	13	3	n/a	107739.9262	n/a
107741.126	1.5998022	7	4	7	13	3	n/a	107741.526	n/a
107742.7258	1.5997881	7	5	6	12	2	1	107743.1258	0.5017934
107744.3256	1.5997261	7	6	6	11	2	1	107744.7255	0.6011477
107745.9254	1.599824413	7	7	6	10	1	1	107746.3253	0.6012659
107747.5251	1.5997899	7	8	6	9	2	1	107747.9251	0.5012134
107749.1249	1.5997362	7	9	6	8	1	1	107749.5248	0.5030432
107750.7247	1.599762	7	10	6	7	2	0	107751.1246	0.601026
107752.3244	1.599836242	7	11	6	6	1	1	107752.7244	0.5009307
107753.9242	1.5997666	7	12	6	5	1	0	107754.3241	0.400995
107755.524	1.599718695	7	13	6	4	1	1	107755.9239	0.3047264
107757.1237	1.5997917	7	14	6	3	1	0	107757.5237	0.3048386
107758.7235	1.5997564	7	15	6	2	1	1	107759.1235	0.2012996
107760.3233	1.5997965	7	16	6	1	2	n/a	107760.7232	n/a
107761.9231	1.5997837	7	17	2	1	2	0	107762.323	0.3010723
107763.5228	1.5998202	7	18	2	2	2	1	107763.9228	0.3010931
107765.1226	1.5997858	7	19	2	3	1	0	107765.5225	0.3002603
107766.7223	1.5997872	7	20	2	4	2	1	107767.1223	0.4011149
107768.3221	1.5997719	7	21	2	5	2	0	107768.7221	0.3006212
107769.9219	1.599747	7	22	2	6	2	1	107770.3218	0.1008573
107771.5217	1.5997838	7	23	2	7	1	1	107771.9216	0.2002045
107773.1214	1.5997908	7	24	2	8	1	1	107773.5214	0.5004918
107774.7212	1.5997579	7	25	2	9	2	1	107775.1211	0.6004635
107776.3209	1.5998582	7	26	2	10	2	1	107776.7209	0.7004789
107777.9207	1.5998063	7	27	2	11	1	1	107778.3207	0.6004541
107779.5205	1.5997667	7	28	2	12	1	1	107779.9205	0.6005013
107781.1203	1.5997842	7	29	4	12	2	1	107781.5202	0.5004923
107782.72	1.5997927	7	30	4	11	1	1	107783.12	0.7004367
107784.3198	1.5997893	7	31	4	10	2	1	107784.7197	0.5005654
107785.9196	1.5997885	7	32	4	9	1	1	107786.3195	0.5004311
107787.5193	1.5997899	7	33	4	8	1	0	107787.9193	0.400572
107789.1191	1.599787	7	34	4	7	2	1	107789.5191	0.5005355
107790.7189	1.5997718	7	35	4	6	2	1	107791.1188	0.6004702
107792.3186	1.5997931	7	36	4	5	2	1	107792.7186	0.8004503
107793.9184	1.5997973	7	37	4	4	1	1	107794.3184	0.5004388738
107795.5182	1.5997673	7	38	4	3	1	1	107795.9181	0.4005631
107797.118	1.59978	7	39	4	2	1	0	107797.5179	0.3011186
107798.7177	1.5997941	7	40	4	1	1	1	107799.1177	0.4005272
107800.3175	1.5997981	7	41	1	1	1	0	107800.7175	0.4005707
107801.9173	1.5997972	7	42	1	2	2	0	107802.3172	0.4006248
107803.517	1.5997765	7	43	1	3	1	0	107803.917	0.3004955
107805.1168	1.59979	7	44	1	4	1	1	107805.5168	0.1005333
107806.7166	1.5997783	7	45	1	5	2	1	107807.1165	0.1005643
107808.3163	1.5997757	7	46	1	6	2	0	107808.7163	0.4011528
107809.9161	1.5997746	7	47	1	7	1	1	107810.3161	0.400566
107811.5159	1.5997788	7	48	1	8	1	0	107811.9156	0.4007387
107813.1155	1.5998882	7	49	1	9	1	1	107813.5156	0.5005388
107814.7154	1.5998374	7	50	1	10	1	1	107815.1153	0.5005668
107816.3152	1.5997317	7	51	1	11	2	1	107816.7151	0.4005424
107817.915	1.5997875	7	52	1	12	2	1	107818.3149	0.5005207
107819.5147	1.5997806	7	53	2	12	2	1	107819.9147	0.6001132
107821.1145	1.5997907	7	54	2	11	1	1	107821.5145	0.5005257
107822.7143	1.5996184	7	55	2	10	1	1	107823.1142	0.5006156
107824.3139	1.5999599	7	56	2	9	1	1	107824.714	0.5005786
107825.9138	1.5997891	7	57	2	8	2	1	107826.3138	0.7005162434
107827.5136	1.599826113	7	58	2	7	1	1	107827.9135	0.6005355
107829.1133	1.5997842	7	59	2	6	2	1	107829.5132	0.400615
107830.7131	1.599725343	7	60	2	5	2	1	107831.113	0.6005313
107832.3129	1.5997884	7	61	2	4	1	1	107832.7128	0.6005396
107833.9126	1.5997793	7	62	2	3	2	1	107834.3126	0.600549
107835.5125	1.5997164	7	63	2	2	1	1	107835.9123	0.5005536
107837.1122	1.5997882	7	64	2	1	1	1	107837.5119	0.500738
107838.7119	1.5997772	7	65	5	1	2	1	107839.1119	0.5005476
107840.3117	1.5997852	7	66	5	2	2	0	107840.7116	0.6006075
107841.9115	1.599799	7	67	5	3	2	0	107842.3114	0.6006079
107843.5113	1.5997764	7	68	5	4	2	1	107843.9112	0.5005203
107845.111	1.5997931	7	69	5	5	1	1	107845.511	0.6000597
107846.7106	1.5999548	7	70	5	6	2	1	107847.1107	0.6005492
107848.3106	1.599741465	7	71	5	7	1	0	107848.7106	0.700470591
107849.9103	1.5998137	7	72	5	8	2	1	107850.3103	0.6001357
107851.5101	1.5996383	7	73	5	9	2	0	107851.91	0.6005529
107853.1099	1.5997835	7	74	5	10	2	1	107853.5097	0.6006813
107854.7096	1.5997873	7	75	5	11	1	1	107855.1096	0.600537
107856.3094	1.5997766	7	76	5	12	2	1	107856.7094	0.5005564
107857.9092	1.5997775	7	77	3	12	2	1	107858.3091	0.6006256
107859.509	1.5997635	7	78	3	11	1	1	107859.9089	0.6004845
107861.1087	1.599812457	7	79	3	10	2	1	107861.5086	0.5006575
107862.7085	1.5997714	7	80	3	9	2	1	107863.1084	0.5005384
107864.3082	1.5996275	7	81	3	8	2	1	107864.7082	0.5006195
107865.908	1.5997973	7	82	3	7	1	1	107866.308	0.3005904
107867.5078	1.5998101	7	83	3	6	2	1	107867.9077	0.2005365
107869.1076	1.5997691	7	84	3	5	1	1	107869.5074	0.200646
107870.7073	1.5997874	7	85	3	4	2	0	107871.1073	0.2005595
107872.3071	1.5997792	7	86	3	3	1	0	107872.707	0.2005255
107873.9069	1.5997771	7	87	3	2	1	1	107874.3068	0.3006153
107875.5066	1.5997784	7	88	3	1	2	0	107875.9066	0.4005588
107877.1062	1.5999372	7	89	6	1	2	1	107877.5063	0.2005597
107878.7062	1.599784	7	90	6	2	1	1	107879.1061	0.1006123
107880.3059	1.5997685	7	91	6	3	2	0	107880.7059	0.3005604
107881.9056	1.5996461	7	92	6	4	2	1	107882.3056	0.3005823
107883.5055	1.599748	7	93	6	5	2	0	107883.9054	0.4005303
107885.1052	1.5997781	7	94	6	6	1	1	107885.505	0.4006903
107886.7048	1.60003747	7	95	6	7	1	1	107887.1049	0.6005202
107888.3048	1.5997961	7	96	6	8	2	1	107888.7047	0.6005568
107889.9045	1.5997833	7	97	6	9	1	1	107890.3045	0.6000904
107891.5044	1.599720787	7	98	6	10	1	1	107891.9042	0.6005326
107893.1041	1.5997757	7	99	6	11	2	1	107893.504	0.7005263
107894.7039	1.5997718	7	100	6	12	2	1	107895.1038	0.7005002
107896.3036	1.5997799	7	101	5	12	2	1	107896.7036	0.800503
107897.9034	1.5997938	7	102	5	11	2	1	107898.3033	0.7001487
107899.5032	1.5997861	7	103	5	10	1	1	107899.9031	0.5005259
107901.1029	1.5997772	7	104	5	9	1	1	107901.5029	0.500546
107902.7027	1.5997892	7	105	5	8	1	0	107903.1025	0.4007102
107904.3025	1.5997751	7	106	5	7	1	1	107904.7024	0.6005301
107905.9022	1.5997692	7	107	5	6	2	1	107906.3022	0.7005357
107907.502	1.599744322	7	108	5	5	2	0	107907.9019	0.5005349
107909.1018	1.5997724	7	109	5	4	1	0	107909.5017	0.4006001
107910.7015	1.5998176	7	110	5	3	2	0	107911.1015	0.1005951
107912.3013	1.5997343	7	111	5	2	1	0	107912.7012	0.1005662
107913.9011	1.5997553	7	112	5	1	2	1	107914.301	0.3005767
107915.5009	1.5998061	7	113	3	1	1	1	107915.9008	0.3006525
107917.1006	1.5997725	7	114	3	2	2	0	107917.5006	0.3005472
107918.7004	1.5997415	7	115	3	3	1	0	107919.1003	0.3006258
107920.3001	1.5997794	7	116	3	4	2	0	107920.7001	0.3005816
107921.8999	1.5998054	7	117	3	5	2	0	107922.2999	0.2005941
107923.4997	1.599737522	7	118	3	6	1	0	107923.8996	0.2001455
107925.0995	1.5997696	7	119	3	7	2	0	107925.4994	0.2005932
107926.6992	1.599604	7	120	3	8	1	1	107927.0992	0.6004733
107928.299	1.5997802	7	121	3	9	1	1	107928.6989	0.6004735
107929.8988	1.5997647	7	122	3	10	2	1	107930.2987	0.6007488
107931.4985	1.5997464	7	123	3	11	1	1	107931.8984	0.5005574
107933.0983	1.5997822	7	124	3	12	2	1	107933.4982	0.5005988
107934.698	1.5998115	7	125	1	12	1	1	107935.098	0.6005706
107936.2978	1.5997831	7	126	1	11	2	1	107936.6978	0.6005211
107937.8976	1.5997889	7	127	1	10	2	1	107938.2975	0.5005343
107939.4973	1.5996211	7	128	1	9	2	1	107939.8973	0.5005254
107941.0971	1.599811	7	129	1	8	1	1	107941.4971	0.5005477
107942.6969	1.5997686	7	130	1	7	2	1	107943.0969	0.6005298
107944.2967	1.5998135	7	131	1	6	2	1	107944.6966	0.7004789
107945.8965	1.5997748	7	132	1	5	1	1	107946.2964	0.7004923
107947.4962	1.5996224	7	133	1	4	1	0	107947.8962	0.600521
107949.096	1.5998212	7	134	1	3	2	1	107949.4959	0.4005729
107950.6958	1.5996232	7	135	1	2	2	0	107951.0957	0.6005182
107952.2954	1.5997304	7	136	1	1	1	0	107952.6953	0.7007046
107953.8953	1.5998104	7	137	4	1	1	1	107954.2952	0.5005337
107955.4951	1.59983557	7	138	4	2	1	0	107955.8949	0.6006215
107957.0949	1.5997245	7	139	4	3	1	1	107957.4948	0.6005541
107958.6946	1.5997992	7	140	4	4	1	0	107959.0945	0.500565
107960.2944	1.5997732	7	141	4	5	1	1	107960.6943	0.5005731
107961.8941	1.5997786	7	142	4	6	1	1	107962.2941	0.6005326
107963.4939	1.599783	7	143	4	7	1	1	107963.8938	0.6005515
107965.0937	1.5997809	7	144	4	8	1	1	107965.4936	0.4005704
107966.6934	1.5997775	7	145	4	9	2	1	107967.0934	0.5005368
107968.2932	1.5998159	7	146	4	10	1	1	107968.6932	0.6000663434
107969.893	1.5997923	7	147	4	11	2	1	107970.2929	0.5005503
107971.4928	1.5996079	7	148	4	12	1	1	107971.8927	0.5005361
107973.0925	1.5997495	7	149	7	13	3	n/a	107973.4925	n/a
107974.6923	1.5997862	7	150	7	13	3	n/a	107975.0922	n/a
107976.2921	1.5997684	7	151	7	13	3	n/a	107976.692	n/a
107977.8918	1.5997928	7	152	7	13	3	n/a	107978.2918	n/a
