onset	duration	run_number	trial_number	spatial_frequency	michelson_contrast	probe_orientation	response_correctness	probe_time	reaction_time
107471.6066	1.5998887	6	1	7	13	3	n/a	107472.0065	n/a
107473.2065	1.5997655	6	2	7	13	3	n/a	107473.6064	n/a
107474.8062	1.5997813	6	3	7	13	3	n/a	107475.2062	n/a
107476.406	1.5997905	6	4	7	13	3	n/a	107476.8059	n/a
107478.0058	1.5997584	6	5	6	12	1	1	107478.4057	0.5018888
107479.6056	1.5996189	6	6	6	11	2	1	107480.0055	0.6012119
107481.2053	1.5997779	6	7	6	10	2	1	107481.6053	0.6012233
107482.8051	1.5997684	6	8	6	9	1	1	107483.205	0.5012566
107484.4049	1.5997906	6	9	6	8	2	1	107484.8048	0.5027589
107486.0046	1.5997863	6	10	6	7	1	0	107486.4046	0.5010102
107487.6044	1.5998241	6	11	6	6	2	0	107488.0043	0.301376
107489.2042	1.5997884	6	12	6	5	2	1	107489.6041	0.3048394
107490.8039	1.599779	6	13	6	4	2	0	107491.2039	0.3010013
107492.4037	1.5997947	6	14	6	3	1	1	107492.8037	0.204378
107494.0035	1.5997812	6	15	6	2	1	0	107494.4034	0.1012526
107495.6032	1.5997881	6	16	6	1	1	0	107496.0032	0.1005464201
107497.2029	1.5998943	6	17	2	1	1	0	107497.6029	0.1005848
107498.8028	1.5997844	6	18	2	2	1	0	107499.2027	0.001187700007
107500.4025	1.5997794	6	19	2	3	2	1	107500.8025	0.1011085
107502.0023	1.5996285	6	20	2	4	2	n/a	107502.4023	n/a
107503.6021	1.5997956	6	21	2	5	1	0	107504.002	0.1007306
107505.2019	1.5997788	6	22	2	6	1	0	107505.6017	0.2007336
107506.8016	1.599811	6	23	2	7	1	1	107507.2016	0.4006492
107508.4014	1.5997894	6	24	2	8	1	1	107508.8014	0.5011141
107510.0012	1.5997832	6	25	2	9	1	0	107510.4011	0.6004468
107511.6009	1.5998383	6	26	2	10	1	1	107512.0009	0.5005764
107513.2007	1.5997681	6	27	2	11	2	1	107513.6006	0.5005182
107514.8005	1.5997902	6	28	2	12	2	1	107515.2004	0.5005258
107516.4003	1.5997608	6	29	4	12	2	1	107516.8002	0.5004647
107518	1.5997771	6	30	4	11	1	1	107518.3999	0.4004984
107519.5998	1.5997282	6	31	4	10	1	1	107519.9997	0.4005527
107521.1995	1.5997962	6	32	4	9	2	1	107521.5995	0.4004842
107522.7993	1.5997839	6	33	4	8	2	1	107523.1992	0.4005018
107524.3991	1.5997827	6	34	4	7	2	1	107524.799	0.3001949
107525.9988	1.5997856	6	35	4	6	2	0	107526.3988	0.1011093
107527.5986	1.5997858	6	36	4	5	1	1	107527.9985	0.1005648
107529.1984	1.5997934	6	37	4	4	2	1	107529.5983	0.5004579
107530.7982	1.59978	6	38	4	3	1	1	107531.1981	0.400606
107532.3979	1.5997758	6	39	4	2	1	0	107532.7979	0.4005189
107533.9975	1.5999401	6	40	4	1	1	1	107534.3976	0.3005044
107535.5975	1.5997829	6	41	1	1	2	1	107535.9974	0.2005303
107537.1972	1.5997809	6	42	1	2	1	1	107537.5972	0.1005127
107538.797	1.5997868	6	43	1	3	1	0	107539.1969	0.2005255
107540.3968	1.599794	6	44	1	4	2	0	107540.7967	0.100733
107541.9965	1.5997797	6	45	1	5	2	1	107542.3964	0.300618
107543.5963	1.5997943	6	46	1	6	2	0	107543.9962	0.4011921
107545.1961	1.5997781	6	47	1	7	2	1	107545.596	0.700559
107546.7959	1.599741776	6	48	1	8	1	1	107547.1958	0.7000649
107548.3956	1.599831	6	49	1	9	2	1	107548.7955	0.6005965
107549.9954	1.5997521	6	50	1	10	2	1	107550.3953	0.6006461
107551.5951	1.5998271	6	51	1	11	2	0	107551.9951	0.4006166
107553.1949	1.5998316	6	52	1	12	1	1	107553.5947	0.5007425
107554.7947	1.5997805	6	53	2	12	2	1	107555.1946	0.4005534
107556.3945	1.5997838	6	54	2	11	2	0	107556.7944	0.4005277
107557.9942	1.5997903	6	55	2	10	1	1	107558.3942	0.4005899
107559.5938	1.5999438	6	56	2	9	2	1	107559.9939	0.4006137
107561.1938	1.599721664	6	57	2	8	1	1	107561.5937	0.4005822
107562.7935	1.5997903	6	58	2	7	2	1	107563.1935	0.5005411
107564.3933	1.5997603	6	59	2	6	1	1	107564.7932	0.5005497
107565.9931	1.5997866	6	60	2	5	1	0	107566.393	0.5005475
107567.5927	1.5998565	6	61	2	4	1	1	107567.9927	0.4005467
107569.1926	1.599855534	6	62	2	3	1	0	107569.5925	0.4005509
107570.7922	1.5999356	6	63	2	2	1	1	107571.1923	0.2005642
107572.3921	1.5997938	6	64	2	1	2	0	107572.7921	0.4005524
107573.9919	1.5997905	6	65	5	1	2	1	107574.3918	0.4005895
107575.5917	1.5997815	6	66	5	2	2	0	107575.9916	0.4005646
107577.1914	1.5997891	6	67	5	3	1	0	107577.5914	0.4005749
107578.7912	1.5997611	6	68	5	4	2	0	107579.191	0.3006887
107580.391	1.5996443	6	69	5	5	2	1	107580.7909	0.3005563
107581.9907	1.5997875	6	70	5	6	2	1	107582.3907	0.3005456
107583.5905	1.5997925	6	71	5	7	1	1	107583.9904	0.300674
107585.1903	1.5996487	6	72	5	8	1	0	107585.5902	0.5005223
107586.7901	1.5997907	6	73	5	9	2	1	107587.19	0.4001993
107588.3898	1.5997976	6	74	5	10	1	1	107588.7896	0.4006775
107589.9896	1.5996728	6	75	5	11	1	1	107590.3895	0.5005597
107591.5894	1.5997845	6	76	5	12	2	1	107591.9891	0.5007307
107593.1891	1.5997433	6	77	3	12	2	0	107593.5889	0.5006997
107594.7889	1.5996226	6	78	3	11	2	0	107595.1888	0.3006149
107596.3887	1.5997797	6	79	3	10	2	1	107596.7886	0.5005497
107597.9885	1.599593844	6	80	3	9	1	1	107598.3884	0.4005653
107599.5882	1.59983128	6	81	3	8	1	1	107599.9882	0.5006738
107601.1878	1.6000009	6	82	3	7	2	1	107601.5879	0.5005237
107602.7877	1.5997124	6	83	3	6	1	1	107603.1877	0.6005461
107604.3875	1.5997965	6	84	3	5	2	1	107604.7874	0.7005606
107605.9873	1.5997679	6	85	3	4	2	0	107606.3872	0.7005494
107607.5871	1.599783	6	86	3	3	2	0	107607.987	0.5006126
107609.1868	1.5996747	6	87	3	2	2	1	107609.5868	0.6005135
107610.7866	1.5997867	6	88	3	1	2	0	107611.1865	0.3005864
107612.3864	1.5997807	6	89	6	1	2	1	107612.7863	0.4005532
107613.9861	1.5997748	6	90	6	2	1	0	107614.3861	0.4002916
107615.5859	1.5997029	6	91	6	3	1	1	107615.9858	0.3005528
107617.1857	1.5997614	6	92	6	4	2	1	107617.5856	0.6005329
107618.7854	1.5997926	6	93	6	5	2	0	107619.1854	0.700536
107620.3851	1.5997482	6	94	6	6	1	1	107620.7851	0.6004874
107621.9849	1.5998168	6	95	6	7	2	1	107622.3849	0.500483722
107623.5847	1.599757	6	96	6	8	1	1	107623.9847	0.5005536
107625.1845	1.5997934	6	97	6	9	2	1	107625.5844	0.5005363
107626.7843	1.5995805	6	98	6	10	2	1	107627.1842	0.6005303
107628.384	1.5997752	6	99	6	11	1	1	107628.784	0.4005492
107629.9839	1.599743022	6	100	6	12	1	1	107630.3837	0.5006017
107631.5835	1.5998217	6	101	5	12	1	1	107631.9834	0.4007377
107633.1834	1.599765	6	102	5	11	1	1	107633.5833	0.700435622
107634.7831	1.5997553	6	103	5	10	1	1	107635.1831	0.6001987
107636.3829	1.5996391	6	104	5	9	2	1	107636.7828	0.5005378
107637.9827	1.5997862	6	105	5	8	1	1	107638.3826	0.5005024
107639.5824	1.5997685	6	106	5	7	2	1	107639.9824	0.5005387
107641.1821	1.5998054	6	107	5	6	2	1	107641.5821	0.7005178
107642.7819	1.5997964	6	108	5	5	2	0	107643.1819	0.6005257
107644.3817	1.5997718	6	109	5	4	1	0	107644.7816	0.5003197
107645.9815	1.5995722	6	110	5	3	2	0	107646.3815	0.7004644981
107647.5813	1.5997454	6	111	5	2	1	0	107647.9812	0.6004886
107649.181	1.5997614	6	112	5	1	2	1	107649.581	0.700548
107650.7808	1.5997757	6	113	3	1	1	1	107651.1807	0.4001173
107652.3806	1.599798	6	114	3	2	1	0	107652.7805	0.4005556
107653.9803	1.5997759	6	115	3	3	1	1	107654.3803	0.3005566
107655.5801	1.5997864	6	116	3	4	2	1	107655.9799	0.5007077
107657.1799	1.599730388	6	117	3	5	1	0	107657.5798	0.6005359
107658.7796	1.5996019	6	118	3	6	1	1	107659.1796	0.6005375
107660.3794	1.5998189	6	119	3	7	2	1	107660.7793	0.5005587
107661.9792	1.5998014	6	120	3	8	1	1	107662.3791	0.5005704
107663.579	1.599777	6	121	3	9	2	1	107663.9789	0.4005653
107665.1787	1.5997892	6	122	3	10	1	1	107665.5786	0.400684
107666.7785	1.5997671	6	123	3	11	2	1	107667.1784	0.5005397
107668.3783	1.5997581	6	124	3	12	1	1	107668.7782	0.500525
107669.978	1.5996853	6	125	1	12	2	1	107670.3779	0.6005316
107671.5778	1.5997772	6	126	1	11	2	0	107671.9777	0.4005306
107673.1775	1.5997845	6	127	1	10	2	0	107673.5773	0.2006868
107674.7773	1.5997844	6	128	1	9	2	1	107675.1772	0.4004961
107676.3771	1.5997668	6	129	1	8	1	1	107676.7769	0.600656
107677.9768	1.5997792	6	130	1	7	2	1	107678.3768	0.5001833
107679.5766	1.5998042	6	131	1	6	2	0	107679.9766	0.5004933
107681.1764	1.599736976	6	132	1	5	2	1	107681.5763	0.4005856
107682.7762	1.5997862	6	133	1	4	1	1	107683.1761	0.3005371
107684.3759	1.5997801	6	134	1	3	1	0	107684.7758	0.200618
107685.9757	1.5997639	6	135	1	2	1	1	107686.3756	0.0006027999916
107687.5755	1.5997761	6	136	1	1	1	1	107687.9754	0.2005435
107689.1753	1.599759044	6	137	4	1	2	1	107689.575	0.4007561
107690.775	1.5997847	6	138	4	2	2	1	107691.175	0.4005327
107692.3748	1.5997831	6	139	4	3	1	1	107692.7747	0.5005433
107693.9745	1.5997951	6	140	4	4	2	1	107694.3745	0.4005976
107695.5743	1.5997412	6	141	4	5	1	0	107695.9743	0.3005667
107697.1741	1.5997747	6	142	4	6	2	0	107697.5738	0.3007631
107698.7738	1.5998318	6	143	4	7	2	1	107699.1738	0.5005316
107700.3736	1.5997697	6	144	4	8	1	1	107700.7736	0.5005205
107701.9734	1.5997881	6	145	4	9	2	1	107702.3734	0.5005597
107703.5732	1.5996666	6	146	4	10	1	1	107703.9731	0.4005518
107705.1729	1.5997874	6	147	4	11	2	0	107705.5729	0.4002472
107706.7727	1.5997822	6	148	4	12	2	0	107707.1725	0.400685
107708.3725	1.5997873	6	149	7	13	3	n/a	107708.7724	n/a
107709.9722	1.5997777	6	150	7	13	3	n/a	107710.3722	n/a
107711.572	1.5997647	6	151	7	13	3	n/a	107711.9719	n/a
107713.1718	1.5997802	6	152	7	13	3	n/a	107713.5717	n/a
