onset	duration	run_number	trial_number	spatial_frequency	michelson_contrast	probe_orientation	response_correctness	probe_time	reaction_time
107170.9917	1.5999548	5	1	7	13	3	n/a	107171.3918	n/a
107172.5916	1.599844134	5	2	7	13	3	n/a	107172.9916	n/a
107174.1914	1.5997945	5	3	7	13	3	n/a	107174.5913	n/a
107175.7912	1.5997594	5	4	7	13	3	n/a	107176.1911	n/a
107177.3909	1.599777	5	5	6	12	2	1	107177.7909	0.6018594
107178.9906	1.5999367	5	6	6	11	1	1	107179.3906	0.5013565
107180.5905	1.608157869	5	7	6	10	1	1	107180.9988	0.5011971
107182.1986	1.5998049	5	8	6	9	1	1	107182.5985	0.8012462
107183.7984	1.599804156	5	9	6	8	2	1	107184.1983	0.7028495
107185.3981	1.5997635	5	10	6	7	1	1	107185.7981	0.6014177
107186.9979	1.5997842	5	11	6	6	1	1	107187.3978	0.5048964
107188.5977	1.5997747	5	12	6	5	1	0	107188.9976	0.4009659
107190.1974	1.5997912	5	13	6	4	1	1	107190.5974	0.4008557
107191.7972	1.5997959	5	14	6	3	1	0	107192.1971	0.3009874
107193.397	1.5997834	5	15	6	2	2	0	107193.7969	0.3012593
107194.9967	1.5997889	5	16	6	1	1	1	107195.3967	0.3005073
107196.5965	1.5997847	5	17	2	1	1	0	107196.9965	0.3047478
107198.1963	1.5997972	5	18	2	2	1	1	107198.5962	0.2005064
107199.7961	1.5997705	5	19	2	3	1	0	107200.196	0.2006778
107201.3958	1.5997855	5	20	2	4	1	1	107201.7958	0.1005349
107202.9956	1.5997793	5	21	2	5	2	1	107203.3955	0.3011018
107204.5953	1.5998585	5	22	2	6	1	1	107204.9953	0.5004779
107206.1951	1.5997891	5	23	2	7	1	1	107206.5951	0.6004569
107207.7949	1.5997752	5	24	2	8	1	1	107208.1949	0.6004454
107209.3947	1.5997321	5	25	2	9	1	1	107209.7946	0.6005557
107210.9944	1.59977	5	26	2	10	1	1	107211.3944	0.5004767
107212.5942	1.5997825	5	27	2	11	2	1	107212.9942	0.6005399
107214.194	1.5997882	5	28	2	12	2	1	107214.5939	0.5010984
107215.7937	1.5998103	5	29	4	12	2	1	107216.1937	0.4007352
107217.3935	1.599752	5	30	4	11	1	1	107217.7934	0.4004771
107218.9933	1.5997773	5	31	4	10	1	1	107219.3932	0.5004821
107220.593	1.5997583	5	32	4	9	2	1	107220.993	0.400546
107222.1928	1.5997955	5	33	4	8	2	1	107222.5927	0.6005299
107223.7926	1.5997877	5	34	4	7	2	0	107224.1924	0.5007056
107225.3923	1.5997852	5	35	4	6	1	1	107225.7923	0.500104
107226.9921	1.5997729	5	36	4	5	2	1	107227.392	0.5004667
107228.5919	1.5998036	5	37	4	4	1	1	107228.9918	0.6017346
107230.1917	1.5997728	5	38	4	3	1	0	107230.5916	0.401127
107231.7914	1.5997685	5	39	4	2	2	0	107232.1914	0.4006887
107233.3912	1.5997865	5	40	4	1	1	1	107233.7911	0.4005063
107234.991	1.5998005	5	41	1	1	1	0	107235.3909	0.5005219
107236.5907	1.5997845	5	42	1	2	2	1	107236.9907	0.4004463437
107238.1905	1.5997814	5	43	1	3	2	0	107238.5904	0.4006573
107239.7903	1.5997922	5	44	1	4	2	0	107240.1902	0.5013224
107241.39	1.5997998	5	45	1	5	2	1	107241.79	0.4006181
107242.9898	1.5998055	5	46	1	6	2	0	107243.3898	0.600674
107244.5896	1.5996229	5	47	1	7	2	0	107244.9895	0.6006128
107246.1892	1.5999684	5	48	1	8	1	0	107246.5893	0.3005908
107247.7891	1.5997849	5	49	1	9	2	1	107248.189	0.3005928
107249.3887	1.599902	5	50	1	10	2	0	107249.7888	0.1006318
107250.9886	1.5998766	5	51	1	11	1	0	107251.3886	0.0006007000047
107252.5884	1.5997921	5	52	1	12	1	n/a	107252.9884	n/a
107254.1882	1.5997085	5	53	2	12	2	1	107254.5882	0.0006773218483
107255.788	1.599781	5	54	2	11	1	1	107256.1879	0.6005482
107257.3877	1.5997994	5	55	2	10	2	1	107257.7876	0.4006063
107258.9875	1.5997827	5	56	2	9	2	1	107259.3874	0.400549
107260.5873	1.5997605	5	57	2	8	1	1	107260.9872	0.4005865
107262.187	1.5997764	5	58	2	7	1	1	107262.587	0.500575
107263.7868	1.5998095	5	59	2	6	2	1	107264.1866	0.5006955
107265.3866	1.5997763	5	60	2	5	1	1	107265.7865	0.4005321
107266.9863	1.599756	5	61	2	4	2	1	107267.3863	0.3005937
107268.5861	1.5996247	5	62	2	3	2	0	107268.986	0.4005828
107270.1859	1.59979	5	63	2	2	2	1	107270.5858	0.3005326
107271.7856	1.5998079	5	64	2	1	1	1	107272.1856	0.2005759
107273.3854	1.5997922	5	65	5	1	1	0	107273.7853	0.4005808
107274.9851	1.5998184	5	66	5	2	1	1	107275.3851	0.4005923
107276.5849	1.5997874	5	67	5	3	2	1	107276.9848	0.300637
107278.1847	1.5997682	5	68	5	4	2	0	107278.5846	0.3005845
107279.7845	1.5997775	5	69	5	5	2	1	107280.1844	0.3005231
107281.3843	1.599742122	5	70	5	6	1	1	107281.7842	0.2002358
107282.984	1.5997929	5	71	5	7	2	1	107283.384	0.5001865
107284.5838	1.5997745	5	72	5	8	1	1	107284.9837	0.5005773
107286.1836	1.5997893	5	73	5	9	1	0	107286.5835	0.4005817
107287.7833	1.5996909	5	74	5	10	2	1	107288.1833	0.3005637
107289.3829	1.600020978	5	75	5	11	1	1	107289.783	0.4005466
107290.9829	1.599736222	5	76	5	12	2	0	107291.3827	0.4006325
107292.5826	1.599795	5	77	3	12	2	1	107292.9826	0.500522
107294.1824	1.5997536	5	78	3	11	2	1	107294.5823	0.5005513
107295.7822	1.5997476	5	79	3	10	2	1	107296.1821	0.5005518
107297.3819	1.5997858	5	80	3	9	1	1	107297.7819	0.6005516
107298.9817	1.5997878	5	81	3	8	2	1	107299.3817	0.5005263
107300.5815	1.599759922	5	82	3	7	2	1	107300.9814	0.5005077
107302.1813	1.5997878	5	83	3	6	2	1	107302.5812	0.5005275
107303.781	1.5997956	5	84	3	5	1	1	107304.181	0.5005384
107305.3808	1.5997824	5	85	3	4	1	0	107305.7807	0.500542
107306.9806	1.5997905	5	86	3	3	1	0	107307.3805	0.3005634
107308.5803	1.5997839	5	87	3	2	2	0	107308.9803	0.4005481
107310.1801	1.5997884	5	88	3	1	2	1	107310.58	0.4005597
107311.7799	1.5997862	5	89	6	1	2	0	107312.1798	0.4005674
107313.3797	1.5997641	5	90	6	2	1	1	107313.7796	0.400557
107314.9793	1.5998832	5	91	6	3	1	0	107315.3793	0.400586
107316.5792	1.599761	5	92	6	4	1	1	107316.9791	0.4005916
107318.1789	1.5997784	5	93	6	5	2	1	107318.5789	0.4005336
107319.7787	1.5998143	5	94	6	6	1	1	107320.1786	0.4006123
107321.3785	1.5997847	5	95	6	7	1	0	107321.7784	0.5005205
107322.9782	1.5997705	5	96	6	8	2	1	107323.378	0.500705
107324.578	1.5997913	5	97	6	9	1	1	107324.9779	0.6005286
107326.1778	1.5997978	5	98	6	10	2	1	107326.5777	0.6005257
107327.7775	1.5997859	5	99	6	11	1	1	107328.1774	0.5005923
107329.3773	1.5998041	5	100	6	12	1	1	107329.7773	0.5005594
107330.9771	1.5997745	5	101	5	12	2	1	107331.377	0.5005619
107332.5769	1.5997859	5	102	5	11	1	1	107332.9768	0.5005593
107334.1766	1.5998017	5	103	5	10	1	1	107334.5766	0.6005155
107335.7764	1.5997931	5	104	5	9	1	1	107336.1763	0.6005272
107337.3762	1.5997689	5	105	5	8	2	1	107337.7761	0.5005549
107338.9759	1.5998044	5	106	5	7	1	1	107339.3759	0.5005474
107340.5757	1.5997997	5	107	5	6	1	1	107340.9756	0.6006263
107342.1755	1.5997773	5	108	5	5	1	1	107342.5754	0.6004320874
107343.7753	1.599743022	5	109	5	4	1	0	107344.1751	0.4006616
107345.375	1.5997988	5	110	5	3	2	0	107345.7749	0.5005665
107346.9748	1.5997842	5	111	5	2	1	1	107347.3747	0.5005871
107348.5745	1.5997815	5	112	5	1	2	0	107348.9745	0.4005769
107350.1743	1.5995914	5	113	3	1	2	1	107350.5742	0.5001236
107351.7739	1.5999348	5	114	3	2	1	1	107352.174	0.5005432
107353.3739	1.599730644	5	115	3	3	2	1	107353.7738	0.4005714
107354.9736	1.5998154	5	116	3	4	2	1	107355.3736	0.4006138
107356.5734	1.5997821	5	117	3	5	1	1	107356.9733	0.5007113
107358.1731	1.5997543	5	118	3	6	2	1	107358.5731	0.6005292
107359.7729	1.5998161	5	119	3	7	1	1	107360.1729	0.6005495
107361.3727	1.5997997	5	120	3	8	2	1	107361.7727	0.5005025437
107362.9725	1.5997754	5	121	3	9	1	1	107363.3724	0.5005825
107364.5722	1.5997698	5	122	3	10	1	0	107364.9722	0.4005207
107366.172	1.5997722	5	123	3	11	2	1	107366.5719	0.4005281
107367.7718	1.5997557	5	124	3	12	1	1	107368.1715	0.5006815
107369.3715	1.5997784	5	125	1	12	2	1	107369.7715	0.4005879
107370.9712	1.5999259	5	126	1	11	1	1	107371.3712	0.3005533
107372.571	1.5997863	5	127	1	10	1	0	107372.971	0.3006665
107374.1708	1.5997731	5	128	1	9	1	1	107374.5708	0.3005651
107375.7706	1.5997798	5	129	1	8	2	1	107376.1705	0.4005606
107377.3703	1.5998184	5	130	1	7	1	1	107377.7703	0.3006451
107378.9702	1.599742966	5	131	1	6	1	0	107379.3701	0.3006426
107380.5699	1.5997889	5	132	1	5	2	0	107380.9698	0.4005606
107382.1697	1.5997855	5	133	1	4	1	1	107382.5696	0.4005659
107383.7694	1.5997904	5	134	1	3	1	0	107384.1694	0.300567
107385.3693	1.599747322	5	135	1	2	2	0	107385.7692	0.3003
107386.969	1.5997858	5	136	1	1	2	1	107387.3689	0.4005449
107388.5688	1.5997766	5	137	4	1	1	1	107388.9687	0.4005579
107390.1685	1.5997711	5	138	4	2	1	0	107390.5685	0.3005871
107391.7682	1.5998686	5	139	4	3	1	1	107392.1682	0.6005387
107393.3681	1.599711	5	140	4	4	1	0	107393.768	0.6007109
107394.9678	1.5997829	5	141	4	5	1	1	107395.3678	0.6005006437
107396.5676	1.5997846	5	142	4	6	2	1	107396.9675	0.5005252
107398.1674	1.5997886	5	143	4	7	2	1	107398.5673	0.5006223
107399.7671	1.5997862	5	144	4	8	2	1	107400.1671	0.5005609
107401.3669	1.5997564	5	145	4	9	1	1	107401.7668	0.5005599
107402.9665	1.5999532	5	146	4	10	2	1	107403.3666	0.4005594
107404.5664	1.5998164	5	147	4	11	1	1	107404.9664	0.6005484
107406.1662	1.599789	5	148	4	12	1	1	107406.5661	0.6005983
107407.766	1.5997822	5	149	7	13	3	n/a	107408.1659	n/a
107409.3657	1.5997878	5	150	7	13	3	n/a	107409.7657	n/a
107410.9654	1.5998586	5	151	7	13	3	n/a	107411.3655	n/a
107412.5653	1.5997935	5	152	7	13	3	n/a	107412.9653	n/a
