onset	duration	run_number	trial_number	spatial_frequency	michelson_contrast	probe_orientation	response_correctness	probe_time	reaction_time
11377.87747	1.5999354	10	1	7	13	3	n/a	11378.27756	n/a
11379.47739	1.5997776	10	2	7	13	3	n/a	11379.87734	n/a
11381.07715	1.5997825	10	3	7	13	3	n/a	11381.4771	n/a
11382.67693	1.5997733	10	4	7	13	3	n/a	11383.07686	n/a
11384.27668	1.5997932	10	5	6	12	2	1	11384.67663	0.6017863
11385.87646	1.5997416	10	6	6	11	1	1	11386.27639	0.5012801
11387.47606	1.5999377	10	7	6	10	1	1	11387.87617	0.4013054
11389.07599	1.5997861	10	8	6	9	1	0	11389.47598	0.6011900438
11390.67576	1.599768	10	9	6	8	2	0	11391.07569	0.6029811
11392.27552	1.5997804	10	10	6	7	1	0	11392.67546	0.5010226
11393.8753	1.5997643	10	11	6	6	1	1	11394.27523	0.4011036
11395.47506	1.5996732	10	12	6	5	1	1	11395.87499	0.4047683
11397.07483	1.599821256	10	13	6	4	1	0	11397.47477	0.4010254
11398.67458	1.599797	10	14	6	3	1	1	11399.07441	0.5013379
11400.27436	1.5997653	10	15	6	2	2	1	11400.6743	0.3048335
11401.87411	1.5997926	10	16	6	1	1	1	11402.274	0.500767
11403.47389	1.599778	10	17	2	1	1	1	11403.87384	0.4005016
11405.07365	1.5996684	10	18	2	2	1	1	11405.4736	0.3004872
11406.67343	1.599756	10	19	2	3	1	1	11407.07341	0.500436
11408.27318	1.599787	10	20	2	4	1	1	11408.67313	0.3005741
11409.87296	1.5997822	10	21	2	5	2	1	11410.27291	0.4006975
11411.47273	1.5997681	10	22	2	6	1	1	11411.87272	0.5004043753
11413.0725	1.5997831	10	23	2	7	1	1	11413.47243	0.5004596
11414.67227	1.5997661	10	24	2	8	1	1	11415.0722	0.5005675
11416.27201	1.5997743	10	25	2	9	1	0	11416.67194	0.5011068
11417.87177	1.5997851	10	26	2	10	1	1	11418.27177	0.4004896
11419.47154	1.5997759	10	27	2	11	2	1	11419.87148	0.5005286
11421.07131	1.5997769	10	28	2	12	2	1	11421.47125	0.5010979
11422.67109	1.5997631	10	29	4	12	2	1	11423.07102	0.7006161
11424.2708	1.5998327	10	30	4	11	1	1	11424.67078	0.6004143
11425.8706	1.5998126	10	31	4	10	1	1	11426.27055	0.5005345
11427.47039	1.599797	10	32	4	9	2	1	11427.8703	0.6005045
11429.07016	1.5997355	10	33	4	8	2	1	11429.47015	0.6004399219
11430.66992	1.5997903	10	34	4	7	2	1	11431.06992	0.5005002219
11432.26966	1.5998243	10	35	4	6	1	0	11432.66965	0.4011442
11433.86945	1.5997852	10	36	4	5	2	0	11434.2694	0.1011706
11435.46922	1.5997918	10	37	4	4	1	0	11435.86913	0.5005575
11437.06899	1.5997835	10	38	4	3	1	1	11437.46894	0.5005389
11438.66876	1.5997798	10	39	4	2	2	0	11439.06871	0.5006281
11440.26853	1.5997879	10	40	4	1	1	1	11440.66848	0.4001692
11441.8683	1.5997736	10	41	1	1	1	1	11442.26824	0.4005548
11443.46806	1.5997938	10	42	1	2	2	0	11443.868	0.4006145
11445.06783	1.5997388	10	43	1	3	2	0	11445.46777	0.5011384
11446.6676	1.5997766	10	44	1	4	2	0	11447.06754	0.6005888
11448.26735	1.5998009	10	45	1	5	2	1	11448.66732	0.6005218
11449.86718	1.599732744	10	46	1	6	2	1	11450.26709	0.6007907
11451.46689	1.5997831	10	47	1	7	2	1	11451.86683	0.6005395
11453.06667	1.599775	10	48	1	8	1	1	11453.46661	0.5005695
11454.66641	1.5998018	10	49	1	9	2	1	11455.06638	0.6005272
11456.26621	1.5997774	10	50	1	10	2	1	11456.66614	0.5005642
11457.86596	1.5998011	10	51	1	11	1	1	11458.26591	0.5005087
11459.46573	1.599825756	10	52	1	12	1	1	11459.86565	0.6005577
11461.06551	1.5997629	10	53	2	12	2	1	11461.46543	0.4005667
11462.66527	1.599777	10	54	2	11	1	0	11463.06503	0.5007524
11464.26504	1.5997541	10	55	2	10	2	0	11464.66498	0.5001912
11465.86477	1.5997826	10	56	2	9	2	1	11466.26468	0.5006007
11467.46455	1.5997641	10	57	2	8	1	1	11467.8645	0.5005956
11469.06412	1.5999591	10	58	2	7	1	1	11469.46426	0.5006536
11470.66408	1.5997883	10	59	2	6	2	0	11471.06402	0.5005661
11472.26386	1.5997611	10	60	2	5	1	1	11472.66379	0.6005301
11473.86361	1.5997932	10	61	2	4	2	1	11474.26356	0.6003609
11475.46341	1.5997815	10	62	2	3	2	1	11475.86333	0.6005141
11477.06316	1.5997874	10	63	2	2	2	1	11477.46311	0.6005229
11478.66294	1.5997841	10	64	2	1	1	1	11479.06285	0.4001601
11480.26272	1.5997632	10	65	5	1	1	0	11480.66265	0.3005467
11481.86247	1.5997342	10	66	5	2	1	0	11482.26243	0.5005482
11483.46229	1.5997246	10	67	5	3	2	0	11483.86219	0.4005769
11485.06201	1.5997867	10	68	5	4	2	1	11485.46195	0.5005418
11486.66178	1.5997802	10	69	5	5	2	1	11487.06172	0.5005481
11488.26154	1.5997972	10	70	5	6	1	0	11488.6615	0.4005701
11489.86131	1.59979	10	71	5	7	2	0	11490.26125	0.5005713
11491.46095	1.5997052	10	72	5	8	1	1	11491.86101	0.6005804
11493.06069	1.5998967	10	73	5	9	1	0	11493.46079	0.5005184
11494.6606	1.5997948	10	74	5	10	2	1	11495.06053	0.5005655
11496.26039	1.5997734	10	75	5	11	1	1	11496.66026	0.5005998
11497.86014	1.5997882	10	76	5	12	2	1	11498.26009	0.5001091
11499.45991	1.599826734	10	77	3	12	2	1	11499.85986	0.5005677
11501.05968	1.5997983	10	78	3	11	2	1	11501.45967	0.4003635438
11502.65947	1.5997719	10	79	3	10	2	1	11503.0594	0.4005739
11504.25922	1.5997875	10	80	3	9	1	1	11504.65917	0.4000801
11505.85898	1.5997723	10	81	3	8	2	1	11506.25892	0.4005485
11507.45874	1.5997959	10	82	3	7	2	0	11507.85869	0.4005806
11509.05852	1.5997861	10	83	3	6	2	1	11509.45845	0.3005902
11510.65829	1.5997847	10	84	3	5	1	1	11511.05823	0.4005688
11512.25806	1.5997874	10	85	3	4	1	1	11512.658	0.3005768
11513.85783	1.5997687	10	86	3	3	1	1	11514.25776	0.5005463
11515.45758	1.5997768	10	87	3	2	2	1	11515.85755	0.500514
11517.05741	1.599714988	10	88	3	1	2	0	11517.45727	0.6005243
11518.65702	1.599863	10	89	6	1	2	1	11519.05705	0.4004774
11520.25687	1.5998267	10	90	6	2	1	1	11520.65682	0.5005478
11521.85663	1.599831	10	91	6	3	1	0	11522.25659	0.4006079
11523.45646	1.5995836	10	92	6	4	1	1	11523.85642	0.4004763096
11525.05617	1.5997847	10	93	6	5	2	0	11525.45612	0.5005578
11526.65589	1.59985	10	94	6	6	1	0	11527.05586	0.6005682
11528.2557	1.5998042	10	95	6	7	1	0	11528.65567	0.7005124
11529.85549	1.5997991	10	96	6	8	2	1	11530.25543	0.5005588
11531.45525	1.5997577	10	97	6	9	1	0	11531.85521	0.5005406
11533.05503	1.599793	10	98	6	10	2	0	11533.45496	0.5005391
11534.65481	1.5997638	10	99	6	11	1	1	11535.05474	0.5005567
11536.25456	1.5997862	10	100	6	12	1	1	11536.65433	0.5007257
11537.85433	1.5997922	10	101	5	12	2	1	11538.25427	0.6005643
11539.45408	1.5997983	10	102	5	11	1	1	11539.85404	0.5005609
11541.05388	1.599757	10	103	5	10	1	1	11541.45381	0.5005541
11542.65345	1.5999787	10	104	5	9	1	1	11543.05357	0.4005495
11544.2534	1.5997813	10	105	5	8	2	1	11544.65334	0.5005449
11545.85321	1.5997468	10	106	5	7	1	0	11546.2531	0.7005266
11547.45293	1.5997832	10	107	5	6	1	1	11547.85288	0.7005314
11549.0527	1.5997919	10	108	5	5	1	0	11549.45264	0.6005689
11550.65248	1.5997845	10	109	5	4	1	1	11551.05241	0.6006113
11552.25209	1.599928	10	110	5	3	2	1	11552.65219	0.5005815
11553.85206	1.599715653	10	111	5	2	1	1	11554.25195	0.4005894
11555.45176	1.5997911	10	112	5	1	2	0	11555.85171	0.4005829
11557.05155	1.5996564	10	113	3	1	2	1	11557.45154	0.4005018096
11558.6513	1.5997998	10	114	3	2	1	1	11559.05125	0.4007116
11560.25107	1.5997527	10	115	3	3	2	0	11560.65095	0.3006575
11561.85085	1.5997768	10	116	3	4	2	0	11562.25079	0.4005725
11563.45061	1.5997871	10	117	3	5	1	1	11563.85056	0.6005622
11565.05041	1.5997459	10	118	3	6	2	1	11565.45033	0.6004982
11566.65013	1.5997446	10	119	3	7	1	1	11567.05006	0.600532
11568.24989	1.5997792	10	120	3	8	2	1	11568.64984	0.5005576
11569.84966	1.5997845	10	121	3	9	1	1	11570.24942	0.5007114
11571.44943	1.5997875	10	122	3	10	1	1	11571.84937	0.4006023
11573.0492	1.5997902	10	123	3	11	2	1	11573.44913	0.4006162
11574.64896	1.5997576	10	124	3	12	1	1	11575.0489	0.5006171
11576.24873	1.5998079	10	125	1	12	2	1	11576.64864	0.5005912
11577.84852	1.5997878	10	126	1	11	1	1	11578.24846	0.5005465
11579.44828	1.5997857	10	127	1	10	1	1	11579.84824	0.5005386
11581.04805	1.5998114	10	128	1	9	1	1	11581.448	0.500576
11582.64783	1.5997809	10	129	1	8	2	1	11583.04777	0.60052
11584.24764	1.599727822	10	130	1	7	1	1	11584.64754	0.600522
11585.8474	1.599746	10	131	1	6	1	1	11586.24729	0.6005401
11587.44711	1.5997861	10	132	1	5	2	1	11587.84707	0.5005379
11589.0469	1.5997736	10	133	1	4	1	0	11589.44684	0.6004912
11590.64667	1.5997281	10	134	1	3	1	0	11591.0466	0.7005239
11592.24643	1.5997793	10	135	1	2	2	0	11592.64638	0.6005326
11593.8462	1.5997612	10	136	1	1	2	1	11594.24606	0.5007885
11595.44595	1.599804	10	137	4	1	1	1	11595.84591	0.4005636
11597.04572	1.5998007	10	138	4	2	1	0	11597.44567	0.4005964
11598.6455	1.5997871	10	139	4	3	1	1	11599.04544	0.3005758
11600.24527	1.599781	10	140	4	4	1	n/a	11600.64522	n/a
11601.84503	1.5997892	10	141	4	5	1	n/a	11602.24498	n/a
11603.44479	1.5997835	10	142	4	6	2	n/a	11603.84475	n/a
11605.04458	1.5995911	10	143	4	7	2	1	11605.44453	0.6004937
11606.64433	1.5997949	10	144	4	8	2	1	11607.04428	0.6005414
11608.2441	1.5997926	10	145	4	9	1	1	11608.64404	0.6005394
11609.84387	1.5997913	10	146	4	10	2	1	11610.24381	0.7005283
11611.44363	1.5997904	10	147	4	11	1	1	11611.84359	0.5000895
11613.0434	1.5997816	10	148	4	12	1	1	11613.44334	0.50055
11614.64318	1.5997607	10	149	7	13	3	n/a	11615.04311	n/a
11616.24293	1.5997805	10	150	7	13	3	n/a	11616.6428	n/a
11617.8427	1.599777	10	151	7	13	3	n/a	11618.24264	n/a
11619.44246	1.5997902	10	152	7	13	3	n/a	11619.84245	n/a
