onset	duration	run_number	trial_number	spatial_frequency	michelson_contrast	probe_orientation	response_correctness	probe_time	reaction_time
85020.51725	1.600103778	3	1	7	13	3	n/a	85020.91722	n/a
85022.11739	1.600226733	3	2	7	13	3	n/a	85022.51733	n/a
85023.71766	1.600201775	3	3	7	13	3	n/a	85024.11771	n/a
85025.31786	1.60025508	3	4	7	13	3	n/a	85025.71789	n/a
85026.91812	1.600322624	3	5	6	12	2	0	85027.3182	0.6043709069
85028.51843	1.600237657	3	6	6	11	2	1	85028.91847	0.5026269387
85030.11868	1.60027493	3	7	6	10	1	1	85030.51874	0.5017866171
85031.71898	1.60005856	3	8	6	9	1	0	85032.11903	0.3014245568
85033.3192	1.600120557	3	9	6	8	2	0	85033.71927	0.401075158
85034.91933	1.600328903	3	10	6	7	2	1	85035.3194	0.3031981307
85036.51964	1.600283593	3	11	6	6	2	0	85036.91965	0.3028627603
85038.1199	1.600175955	3	12	6	5	1	0	85038.51989	0.2025600239
85039.72009	1.600231289	3	13	6	4	2	0	85040.12016	0.3038268876
85041.32043	1.600122614	3	14	6	3	2	1	85041.7204	0.2059459739
85042.92056	1.600322903	3	15	6	2	2	0	85043.32061	0.3027395432
85044.52084	1.600290777	3	16	6	1	2	1	85044.92087	0.3021989512
85046.12111	1.600192136	3	17	2	1	1	1	85046.52113	0.3033994773
85047.72132	1.60027125	3	18	2	2	2	1	85048.12136	0.3024691739
85049.32156	1.60022624	3	19	2	3	1	1	85049.72171	0.3024829421
85050.92181	1.600210953	3	20	2	4	2	1	85051.32187	0.3029117307
85052.52209	1.600258775	3	21	2	5	1	1	85052.92217	0.4015692387
85054.12231	1.600321017	3	22	2	6	2	1	85054.52244	0.3010271421
85055.72249	1.600239492	3	23	2	7	1	1	85056.12257	0.3008072205
85057.32271	1.600273515	3	24	2	8	1	0	85057.72282	0.3037074842
85058.92299	1.6002888	3	25	2	9	2	1	85059.32307	0.5012157285
85060.52322	1.600309718	3	26	2	10	2	1	85060.92329	0.4031346978
85062.1235	1.600231534	3	27	2	11	1	1	85062.52355	0.8030093137
85063.72372	1.60030304	3	28	2	12	1	1	85064.1238	0.7030200069
85065.32397	1.600251215	3	29	4	12	1	0	85065.72405	0.8021331433
85066.92432	1.600237361	3	30	4	11	1	1	85067.32429	0.502748158
85068.52454	1.600133945	3	31	4	10	1	0	85068.92453	0.5034767762
85070.12468	1.600269305	3	32	4	9	2	0	85070.52487	0.4029678364
85071.72497	1.600239374	3	33	4	8	2	1	85072.12502	0.4023756773
85073.32525	1.600254461	3	34	4	7	2	0	85073.72526	0.3014817899
85074.92554	1.600243991	3	35	4	6	1	0	85075.3256	0.4012398046
85076.52579	1.600117259	3	36	4	5	1	1	85076.92569	0.4010579887
85078.12591	1.600236459	3	37	4	4	2	1	85078.52605	0.3031635853
85079.72615	1.600347448	3	38	4	3	2	0	85080.12624	0.3025400239
85081.32639	1.60024785	3	39	4	2	1	0	85081.72648	0.2023879842
85082.92667	1.600227761	3	40	4	1	1	1	85083.32672	0.3029189512
85084.52691	1.600208074	3	41	1	1	1	0	85084.92707	0.3036707421
85086.12714	1.600234681	3	42	1	2	1	1	85086.52717	0.3030389114
85087.72741	1.600209127	3	43	1	3	1	0	85088.12744	0.3022004955
85089.32765	1.600206776	3	44	1	4	1	1	85089.7278	0.4028293307
85090.92787	1.600229252	3	45	1	5	2	1	85091.32794	0.4027336432
85092.52811	1.600232426	3	46	1	6	2	0	85092.92824	0.302103125
85094.12845	1.600146864	3	47	1	7	2	1	85094.52851	0.4022908023
85095.7286	1.6002447	3	48	1	8	2	1	85096.12867	0.5028605501
85097.32883	1.600232418	3	49	1	9	1	0	85097.72891	0.6027688432
85098.92909	1.600235399	3	50	1	10	1	1	85099.32915	0.7025709023
85100.52934	1.600291718	3	51	1	11	2	1	85100.92925	0.6023729013
85102.12965	1.600250966	3	52	1	12	1	1	85102.52972	0.6010128909
85103.72993	1.60024153	3	53	2	12	1	1	85104.13	0.7005379682
85105.33017	1.600181178	3	54	2	11	2	1	85105.73012	0.6027120251
85106.93031	1.60001664	3	55	2	10	1	0	85107.33037	1.003755973
85108.53038	1.600328511	3	56	2	9	1	1	85108.93062	0.8029082637
85110.13072	1.600297253	3	57	2	8	1	1	85110.53088	0.7030196239
85111.73104	1.600239189	3	58	2	7	1	0	85112.13111	0.6027930614
85113.33131	1.60020554	3	59	2	6	2	0	85113.73134	0.602488866
85114.93154	1.600183119	3	60	2	5	2	1	85115.33161	0.4019023455
85116.53184	1.600268963	3	61	2	4	2	0	85116.93191	0.3011384387
85118.13211	1.600239474	3	62	2	3	2	1	85118.53218	0.4010577023
85119.73236	1.600225816	3	63	2	2	1	1	85120.13242	0.4011200875
85121.33243	1.600404213	3	64	2	1	1	0	85121.73266	0.4030553171
85122.93271	1.600346331	3	65	5	1	2	0	85123.3328	0.4027673989
85124.53303	1.600297451	3	66	5	2	1	0	85124.93305	0.2033066648
85126.13329	1.600173357	3	67	5	3	2	0	85126.5333	0.4022290375
85127.7335	1.600203706	3	68	5	4	1	0	85128.13354	0.6024249137
85129.33373	1.600232578	3	69	5	5	2	0	85129.7338	0.7024337887
85130.93396	1.600224141	3	70	5	6	2	1	85131.33404	0.5028574421
85132.53423	1.600208364	3	71	5	7	1	1	85132.93428	0.5025399444
85134.13445	1.600245344	3	72	5	8	2	1	85134.53451	0.602090066
85135.73472	1.600202544	3	73	5	9	1	1	85136.13478	0.6030752671
85137.33494	1.600225816	3	74	5	10	2	1	85137.73499	0.5024689239
85138.9352	1.600210488	3	75	5	11	1	1	85139.33526	0.4027591148
85140.53543	1.600242258	3	76	5	12	2	1	85140.93548	0.4051844558
85142.13567	1.600250765	3	77	3	12	1	0	85142.53573	0.3030685126
85143.73594	1.600204833	3	78	3	11	1	0	85144.13598	0.002248337536
85145.33615	1.600245433	3	79	3	10	2	1	85145.73622	1.002375026
85146.93642	1.600216026	3	80	3	9	1	1	85147.33647	0.7026389557
85148.53665	1.600224878	3	81	3	8	1	0	85148.93667	0.3029544444
85150.13689	1.600226516	3	82	3	7	2	0	85150.53693	0.5028430694
85151.73715	1.600219341	3	83	3	6	2	1	85152.13721	0.4027831239
85153.33737	1.600241359	3	84	3	5	2	0	85153.73743	0.4035858432
85154.93762	1.600224934	3	85	3	4	1	0	85155.33768	0.4029343296
85156.53787	1.600251768	3	86	3	3	1	1	85156.93803	0.3024569875
85158.13814	1.600290807	3	87	3	2	1	0	85158.5382	0.2023760728
85159.73846	1.600259203	3	88	3	1	2	0	85160.13851	0.3007967136
85161.3387	1.600221474	3	89	6	1	1	0	85161.73876	0.4010567534
85162.93894	1.600125718	3	90	6	2	1	1	85163.33889	0.3023816807
85164.53908	1.600223858	3	91	6	3	2	1	85164.93913	0.3029053023
85166.13932	1.600235286	3	92	6	4	2	0	85166.53941	0.4028026762
85167.73958	1.600223252	3	93	6	5	1	0	85168.13968	0.4022378421
85169.33982	1.60022663	3	94	6	6	1	1	85169.73986	0.4011523432
85170.94017	1.600107232	3	95	6	7	2	1	85171.34013	0.3028200103
85172.5403	1.600216564	3	96	6	8	1	1	85172.94037	0.3024793705
85174.14066	1.600111109	3	97	6	9	1	0	85174.54058	0.4020550876
85175.74076	1.600253501	3	98	6	10	2	0	85176.14086	0.5027400603
85177.34104	1.600202317	3	99	6	11	1	0	85177.7411	0.3024659001
85178.94129	1.600215636	3	100	6	12	1	1	85179.34133	0.403154633
85180.54155	1.600296605	3	101	5	12	1	0	85180.94159	0.3027264217
85182.14187	1.600109365	3	102	5	11	1	1	85182.54183	0.3010413001
85183.74198	1.600249335	3	103	5	10	2	1	85184.14209	0.4025520898
85185.34226	1.600219956	3	104	5	9	1	1	85185.74232	0.4022078364
85186.94258	1.600127973	3	105	5	8	2	1	85187.34264	0.4023433636
85188.54274	1.600326502	3	106	5	7	1	1	85188.9428	0.3025864512
85190.14303	1.600273832	3	107	5	6	1	0	85190.54306	0.5026541898
85191.74328	1.600222768	3	108	5	5	2	0	85192.14332	0.40171845
85193.34354	1.600197166	3	109	5	4	1	0	85193.74359	0.4013120693
85194.94381	1.600094842	3	110	5	3	1	1	85195.34387	0.4009959727
85196.54406	1.600061407	3	111	5	2	1	0	85196.94398	0.5026244364
85198.1442	1.600220544	3	112	5	1	1	1	85198.54423	0.5030789682
85199.74443	1.60034243	3	113	3	1	1	0	85200.1445	0.5024177296
85201.34472	1.600277703	3	114	3	2	2	0	85201.74479	0.4015684671
85202.94501	1.600240001	3	115	3	3	1	0	85203.34509	0.3010037341
85204.54528	1.600171862	3	116	3	4	1	1	85204.94534	0.3027898977
85206.14536	1.60036835	3	117	3	5	2	1	85206.54548	0.5025567932
85207.74567	1.600287755	3	118	3	6	2	0	85208.14577	0.3019188694
85209.34598	1.600248374	3	119	3	7	1	0	85209.74604	0.3004939591
85210.94626	1.60012181	3	120	3	8	1	1	85211.34631	0.3010488989
85212.54639	1.600184309	3	121	3	9	2	1	85212.9465	0.2017385035
85214.14674	1.600080852	3	122	3	10	2	0	85214.54671	0.3028446876
85215.74683	1.600307259	3	123	3	11	1	0	85216.14694	0.3029165432
85217.34711	1.600221597	3	124	3	12	2	1	85217.74718	0.302787158
85218.94738	1.600216772	3	125	1	12	1	1	85219.34743	0.702584766
85220.54759	1.600248792	3	126	1	11	2	1	85220.94767	0.7035266501
85222.14786	1.600230461	3	127	1	10	1	1	85222.54792	0.9027192251
85223.7481	1.600255797	3	128	1	9	2	1	85224.14817	0.6023622114
85225.34839	1.600266733	3	129	1	8	2	0	85225.74846	0.8014786194
85226.94866	1.600251165	3	130	1	7	2	1	85227.34875	0.6009836421
85228.54893	1.600106344	3	131	1	6	1	1	85228.94899	0.5010408841
85230.14908	1.600200293	3	132	1	5	1	0	85230.54911	0.4032197466
85231.74932	1.600204592	3	133	1	4	1	1	85232.14938	0.302725266
85233.34954	1.60023474	3	134	1	3	2	1	85233.74961	0.3022524398
85234.94981	1.600223759	3	135	1	2	2	0	85235.34987	0.3018065739
85236.55005	1.600239405	3	136	1	1	2	1	85236.95009	0.5020161728
85238.15028	1.600238874	3	137	4	1	1	1	85238.55035	0.5006977478
85239.75053	1.600238902	3	138	4	2	2	1	85240.15065	0.5026093148
85241.35078	1.60026943	3	139	4	3	2	0	85241.75085	0.3023120114
85242.95106	1.600260377	3	140	4	4	1	0	85243.35114	0.1013706193
85244.55137	1.6002279	3	141	4	5	2	0	85244.95142	0.3010576125
85246.1516	1.60011569	3	142	4	6	1	0	85246.55167	0.3010710727
85247.75174	1.600217645	3	143	4	7	1	1	85248.15192	0.4008917421
85249.35196	1.600241344	3	144	4	8	1	0	85249.75203	0.3028987273
85250.95221	1.600249333	3	145	4	9	1	1	85251.35229	0.3024510728
85252.55247	1.600238091	3	146	4	10	2	1	85252.95254	0.401196458
85254.15272	1.600215186	3	147	4	11	2	0	85254.55278	0.4029982887
85255.75296	1.600235085	3	148	4	12	2	1	85256.15303	0.4024142069
85257.35323	1.60019469	3	149	7	13	3	n/a	85257.75327	n/a
85258.95346	1.600223677	3	150	7	13	3	n/a	85259.35352	n/a
85260.5537	1.600234253	3	151	7	13	3	n/a	85260.95377	n/a
85262.15395	1.600239066	3	152	7	13	3	n/a	85262.554	n/a
