onset	duration	run_number	trial_number	spatial_frequency	michelson_contrast	probe_orientation	response_correctness	probe_time	reaction_time
86679.18646	1.587080334	3	1	7	13	3	n/a	86679.58637	n/a
86680.77556	1.580175	3	2	7	13	3	n/a	86681.16937	n/a
86682.35429	1.5765531	3	3	7	13	3	n/a	86682.74887	n/a
86683.92914	1.5799973	3	4	7	13	3	n/a	86684.32523	n/a
86685.50915	1.5729576	3	5	6	12	1	0	86685.90123	1.0878523
86687.08008	1.5773476	3	6	6	11	2	1	86687.47311	0.9867529
86688.65728	1.5761841	3	7	6	10	2	0	86689.05144	0.6897968
86690.23179	1.5747895	3	8	6	9	2	0	86690.62595	0.6898016
86691.80492	1.5794886	3	9	6	8	1	1	86692.19831	0.5900997
86693.38347	1.5733095	3	10	6	7	2	0	86693.77691	0.491702
86694.95498	1.5738824	3	11	6	6	1	1	86695.3494	0.3931012
86696.52695	1.5724284	3	12	6	5	1	1	86696.92065	0.2936334
86698.09764	1.5740258	3	13	6	4	2	1	86698.49011	0.3952301
86699.66977	1.5772246	3	14	6	3	1	1	86700.0636	0.2966378
86701.24495	1.5721423	3	15	6	2	1	0	86701.63756	0.3931206
86702.81548	1.5738611	3	16	6	1	1	1	86703.20832	0.3933061
86704.38745	1.5714994	3	17	2	1	1	0	86704.77952	0.3929953
86705.957	1.575224	3	18	2	2	2	0	86706.35024	0.3919231
86707.5304	1.5724682	3	19	2	3	1	0	86707.92292	0.2952923
86709.10113	1.5732546	3	20	2	4	1	1	86709.4938	0.2970351
86710.67256	1.5725798	3	21	2	5	2	0	86711.06544	0.2957058
86712.24297	1.5736808	3	22	2	6	1	0	86712.6361	0.3935758
86713.81566	1.5756239	3	23	2	7	1	1	86714.20928	0.3941594
86715.38936	1.5732998	3	24	2	8	2	0	86715.7835	0.2951588
86716.96092	1.575028	3	25	2	9	2	1	86717.35417	0.3928416
86718.53411	1.5763965	3	26	2	10	2	1	86718.92724	0.4951393
86720.10872	1.57538	3	27	2	11	1	1	86720.50134	0.7880999
86721.68234	1.5726935	3	28	2	12	1	1	86722.07441	0.7871946
86723.25336	1.5729674	3	29	4	12	2	1	86723.6448	0.5904935
86724.82454	1.5736443	3	30	4	11	1	0	86725.21824	0.7855921
86726.39623	1.5740094	3	31	4	10	1	1	86726.7895	0.7856877
86727.97065	1.5713319	3	32	4	9	1	0	86728.3631	0.8835755
86729.54005	1.571598	3	33	4	8	1	1	86729.93286	0.7857931
86731.10975	1.5750132	3	34	4	7	2	1	86731.50439	0.884336
86732.68361	1.572824	3	35	4	6	2	0	86733.07625	0.7866451
86734.25475	1.5764916	3	36	4	5	1	1	86734.64745	0.6916541
86735.82961	1.5717994	3	37	4	4	2	1	86736.22163	0.6882283
86737.39961	1.5722149	3	38	4	3	1	1	86737.79292	0.4911561
86738.96996	1.5747224	3	39	4	2	2	1	86739.36297	0.5911561
86740.54276	1.5761995	3	40	4	1	2	0	86740.93538	0.3928931
86742.11724	1.5748904	3	41	1	1	1	0	86742.51037	0.5910612
86743.69041	1.5753104	3	42	1	2	1	1	86744.08601	0.4906415
86745.2647	1.5725777	3	43	1	3	2	1	86745.65696	0.3939692
86746.83534	1.5751148	3	44	1	4	1	1	86747.22816	0.3937858
86748.40857	1.5747301	3	45	1	5	2	1	86748.80233	0.492679
86749.98228	1.5751726	3	46	1	6	1	1	86750.37555	0.492437
86751.55573	1.5732517	3	47	1	7	1	0	86751.94916	0.4905785
86753.12707	1.5720212	3	48	1	8	2	1	86753.52099	0.5885343
86754.6973	1.5746866	3	49	1	9	1	0	86755.08955	0.7880864
86756.26996	1.5722251	3	50	1	10	2	1	86756.66183	0.6887749
86757.84041	1.5749174	3	51	1	11	1	1	86758.23326	0.6881283
86759.41554	1.5724758	3	52	1	12	1	1	86759.8078	0.688203
86760.98614	1.5725648	3	53	2	12	2	1	86761.37885	0.6882821
86762.55624	1.5755415	3	54	2	11	2	1	86762.95079	0.7865529
86764.12982	1.5718808	3	55	2	10	1	1	86764.52239	0.6869705
86765.7001	1.5786765	3	56	2	9	1	1	86766.09246	0.6945915
86767.27688	1.5711179	3	57	2	8	2	1	86767.66906	0.9810213
86768.84555	1.5748162	3	58	2	7	1	0	86769.23796	0.6897098
86770.41863	1.571816	3	59	2	6	1	1	86770.81188	0.5885951
86771.9881	1.5775976	3	60	2	5	1	0	86772.38193	0.6888182
86773.56381	1.5732505	3	61	2	4	1	1	86773.95595	0.4919028
86775.13484	1.5736204	3	62	2	3	2	1	86775.5282	0.3921545
86776.70648	1.5758887	3	63	2	2	2	0	86777.10134	0.2948817
86778.28116	1.5733315	3	64	2	1	1	0	86778.67452	0.3930319
86779.85303	1.5752197	3	65	5	1	2	0	86780.24605	0.3957086
86781.42627	1.5741278	3	66	5	2	1	0	86781.81967	0.3936922
86782.99857	1.5736172	3	67	5	3	1	1	86783.39102	0.2940785
86784.5711	1.5745809	3	68	5	4	2	1	86784.96605	0.2942579
86786.14353	1.5709896	3	69	5	5	1	1	86786.53532	0.3922319
86787.71269	1.5712522	3	70	5	6	2	1	86788.10538	0.392326
86789.28214	1.5767637	3	71	5	7	2	0	86789.67645	0.3939915
86790.85768	1.5722367	3	72	5	8	2	1	86791.25045	0.2944662
86792.42801	1.5724611	3	73	5	9	1	1	86792.82075	0.2944062
86793.99802	1.575307	3	74	5	10	2	1	86794.39195	0.1971707
86795.57236	1.5730271	3	75	5	11	2	0	86795.96519	0.1968689
86797.14345	1.5741191	3	76	5	12	2	1	86797.53647	0.3934059
86798.71588	1.5736063	3	77	3	12	1	0	86799.10843	0.3927602
86800.28708	1.5730315	3	78	3	11	2	1	86800.67943	0.5899223
86801.85822	1.5765238	3	79	3	10	1	1	86802.25146	0.6900607
86803.43255	1.575115	3	80	3	9	2	1	86803.82551	0.4911971
86805.00596	1.5721464	3	81	3	8	1	1	86805.3988	0.4908215
86806.57567	1.5720325	3	82	3	7	1	0	86806.96856	0.4909146
86808.14624	1.5725135	3	83	3	6	2	0	86808.53948	0.3926045
86809.71662	1.5725975	3	84	3	5	2	1	86810.10947	0.2942542
86811.28729	1.5765371	3	85	3	4	2	0	86811.68265	0.3926092
86812.86176	1.5749341	3	86	3	3	1	0	86813.25434	0.3947604
86814.43498	1.5735933	3	87	3	2	2	0	86814.82722	0.3937628
86816.00683	1.5714458	3	88	3	1	2	1	86816.39959	0.2943046
86817.5762	1.5724425	3	89	6	1	1	1	86817.96883	0.3931469
86819.14624	1.5718656	3	90	6	2	1	0	86819.53845	0.3929156
86820.71646	1.5742628	3	91	6	3	1	1	86821.10962	0.4917201
86822.28888	1.5736729	3	92	6	4	2	1	86822.68293	0.5894772
86823.86054	1.5771554	3	93	6	5	2	0	86824.25503	0.5911647
86825.44054	1.5772655	3	94	6	6	1	0	86825.8358	0.6902092
86827.01592	1.5743856	3	95	6	7	1	1	86827.40805	0.4913161
86828.58841	1.5789599	3	96	6	8	2	1	86828.98215	0.1983029
86830.16527	1.5742701	3	97	6	9	2	0	86830.55714	0.1964746
86831.73715	1.5762184	3	98	6	10	2	1	86832.13024	0.393302
86833.31168	1.5742233	3	99	6	11	2	0	86833.70414	0.4930206
86834.88414	1.575742	3	100	6	12	1	0	86835.27807	0.3938254
86836.45954	1.5793787	3	101	5	12	2	1	86836.85372	0.4950385
86838.03687	1.5751951	3	102	5	11	2	1	86838.42993	0.6913636
86839.61015	1.5747085	3	103	5	10	1	1	86840.00241	0.4911102
86841.1839	1.5746581	3	104	5	9	1	0	86841.57656	0.2948744
86842.75662	1.5737155	3	105	5	8	2	0	86843.14938	0.2951462
86844.32831	1.5730107	3	106	5	7	2	1	86844.7217	0.2946947
86845.90033	1.5726817	3	107	5	6	1	1	86846.29273	0.294833
86847.472	1.5750081	3	108	5	5	1	0	86847.86603	0.3931572
86849.04496	1.5759183	3	109	5	4	2	0	86849.43748	0.2964619
86850.61887	1.5768317	3	110	5	3	2	1	86851.01467	0.3921096
86852.19384	1.5721607	3	111	5	2	2	0	86852.58636	0.2945811
86853.76403	1.5777949	3	112	5	1	1	1	86854.15953	0.3952572
86855.34081	1.5744455	3	113	3	1	2	1	86855.73408	0.3928426
86856.91348	1.5767144	3	114	3	2	2	0	86857.30684	0.2950199
86858.48866	1.5705109	3	115	3	3	2	1	86858.88047	0.2949085
86860.05739	1.5719108	3	116	3	4	1	1	86860.45006	0.293617
86861.62748	1.5715257	3	117	3	5	1	0	86862.01947	0.2943727
86863.19712	1.5743165	3	118	3	6	2	0	86863.59082	0.2943452
86864.77056	1.5739037	3	119	3	7	1	1	86865.16472	0.4920814
86866.34252	1.5745532	3	120	3	8	1	1	86866.73698	0.4900818
86867.91515	1.578709	3	121	3	9	2	1	86868.3099	0.4944173
86869.49209	1.5735413	3	122	3	10	2	1	86869.88603	0.4904821
86871.06361	1.5748046	3	123	3	11	2	1	86871.4574	0.4920201
86872.63659	1.5724239	3	124	3	12	1	1	86873.03007	0.6868938
86874.20714	1.576293	3	125	1	12	1	1	86874.60017	0.6867731
86875.78155	1.5721846	3	126	1	11	2	1	86876.17269	0.6885333
86877.352	1.5735903	3	127	1	10	2	1	86877.74606	0.6877329
86878.9252	1.5712635	3	128	1	9	2	1	86879.3183	0.6863349
86880.49479	1.5738433	3	129	1	8	1	0	86880.88714	0.9831959
86882.06746	1.5781614	3	130	1	7	2	0	86882.46279	0.4929603
86883.64361	1.5731611	3	131	1	6	2	0	86884.03582	0.3932994
86885.21483	1.5742103	3	132	1	5	2	1	86885.60843	0.5898825
86886.78735	1.5743163	3	133	1	4	2	0	86887.18039	0.6883399
86888.35974	1.5734138	3	134	1	3	1	0	86888.75182	0.6889393
86889.93121	1.5729934	3	135	1	2	2	0	86890.32467	0.2951683
86891.50275	1.5738431	3	136	1	1	2	1	86891.8953	0.3921086
86893.07461	1.5731674	3	137	4	1	2	0	86893.46694	0.4922102
86894.64619	1.5748204	3	138	4	2	1	0	86895.04094	0.4909893
86896.21945	1.5796242	3	139	4	3	2	0	86896.61603	0.591098
86897.79737	1.577206	3	140	4	4	2	1	86898.19096	0.5913596
86899.37265	1.575108	3	141	4	5	2	0	86899.7654	0.4919847
86900.94746	1.5731173	3	142	4	6	1	0	86901.33924	0.4925707
86902.51931	1.5758486	3	143	4	7	1	1	86902.91358	0.4909629
86904.09308	1.5719908	3	144	4	8	2	1	86904.48643	0.7841993
86905.66343	1.5731215	3	145	4	9	2	1	86906.05557	0.7853016
86907.23469	1.5764012	3	146	4	10	1	1	86907.62736	0.59215
86908.80914	1.5732657	3	147	4	11	1	0	86909.20103	0.2964999
86910.38133	1.5753886	3	148	4	12	1	0	86910.77425	0.295028
86911.95438	1.5760079	3	149	7	13	3	n/a	86912.34834	n/a
86913.52849	1.5750712	3	150	7	13	3	n/a	86913.92212	n/a
86915.10171	1.5721229	3	151	7	13	3	n/a	86915.49504	n/a
86916.67201	1.5738538	3	152	7	13	3	n/a	86917.06546	n/a
