onset	duration	run_number	trial_number	spatial_frequency	michelson_contrast	probe_orientation	response_correctness	probe_time	reaction_time
1806.024131	1.599937	1	1	7	13	3	n/a	1806.424033	n/a
1807.624087	1.5997605	1	2	7	13	3	n/a	1808.023959	n/a
1809.223676	1.599904	1	3	7	13	3	n/a	1809.623729	n/a
1810.823476	1.599976232	1	4	7	13	3	n/a	1811.223553	n/a
1812.423367	1.599796	1	5	6	12	1	1	1812.823303	0.8016334
1814.023106	1.5996828	1	6	6	11	1	1	1814.422965	0.6005291
1815.622793	1.5999028	1	7	6	10	1	1	1816.022696	0.501549
1817.222698	1.5997822	1	8	6	9	2	0	1817.622594	0.501394
1818.822471	2.2496956	1	9	6	8	2	0	1819.222385	0.8078252
1821.180483	1.5996896	1	10	6	7	1	n/a	1821.580448	n/a
1822.780239	1.5997832	1	11	6	6	2	0	1823.180183	0.300717
1824.380019	1.599814259	1	12	6	5	1	0	1824.779949	0.4011435
1825.979824	1.5997397	1	13	6	4	1	1	1826.379719	0.3011101
1827.579554	1.5997831	1	14	6	3	1	0	1827.979498	0.3002391
1829.179191	1.5999227	1	15	6	2	2	0	1829.579262	0.3002803
1830.779139	1.599739914	1	16	6	1	2	1	1831.179044	0.3010042
1832.378865	1.5997217	1	17	2	1	1	1	1832.778653	0.3006504
1833.978485	1.599955	1	18	2	2	1	0	1834.378472	0.3012135
1835.578409	1.5997831	1	19	2	3	1	1	1835.978392	0.3006909137
1837.178046	1.5999406	1	20	2	4	2	1	1837.577951	0.2018775
1838.777951	1.5997891	1	21	2	5	2	0	1839.177901	0.2011259
1840.377734	1.5996017	1	22	2	6	2	1	1840.777673	0.2006619
1841.977536	1.599592814	1	23	2	7	1	1	1842.377328	0.5002367
1843.5771	1.5999699	1	24	2	8	2	1	1843.977208	0.5005565
1845.177045	1.5997849	1	25	2	9	2	1	1845.576986	0.601448
1846.776812	1.5997844	1	26	2	10	1	1	1847.176606	0.5006748
1848.376563	1.5997137	1	27	2	11	1	1	1848.776519	0.600476
1849.97636	1.5997846	1	28	2	12	1	1	1850.376298	0.6004652
1851.576166	1.599743014	1	29	4	12	2	1	1851.976069	0.6005902
1853.175898	1.5998257	1	30	4	11	1	0	1853.575838	0.6010307
1854.775672	1.9330374	1	31	4	10	2	1	1855.175604	0.6004821
1856.708701	1.5997927	1	32	4	9	1	1	1857.108611	0.5005341
1858.30849	1.5997636	1	33	4	8	2	1	1858.708422	0.6004705
1859.908239	1.5997858	1	34	4	7	1	1	1860.308243	0.6005592
1861.508024	1.5997848	1	35	4	6	2	1	1861.907967	0.5004951
1863.107788	1.599798	1	36	4	5	2	0	1863.50773	0.5000957
1864.707517	1.5996759	1	37	4	4	2	1	1865.107345	0.5007858
1866.307333	1.5997867	1	38	4	3	2	0	1866.707276	0.4005994
1867.906921	1.599986	1	39	4	2	2	1	1868.307067	0.4005678
1869.506888	1.5997911	1	40	4	1	1	1	1869.906872	0.4004895137
1871.106666	1.5997906	1	41	1	1	1	0	1871.506628	0.3005375
1872.706387	1.5998432	1	42	1	2	1	1	1873.106371	0.2005983
1874.306206	1.5997807	1	43	1	3	2	1	1874.706157	0.2005272
1875.905981	1.5997387	1	44	1	4	1	1	1876.305775	0.1008157
1877.505755	1.5997194	1	45	1	5	2	1	1877.905692	0.1006002
1879.105325	1.5999872	1	46	1	6	1	n/a	1879.505476	n/a
1880.705146	1.5999324	1	47	1	7	2	1	1881.105251	0.6005617
1882.305068	1.5996982	1	48	1	8	1	1	1882.705008	0.600554
1883.904851	1.5997713	1	49	1	9	1	1	1884.304776	0.7005067
1885.504567	1.5998314	1	50	1	10	1	1	1885.904528	0.7005528
1887.104324	1.5998438	1	51	1	11	2	0	1887.504326	1.00051
1888.704115	1.5998311	1	52	1	12	1	0	1889.104092	0.7005616
1890.303926	1.5997984	1	53	2	12	1	1	1890.703872	0.600544
1891.90361	1.5998783	1	54	2	11	2	0	1892.303645	0.800072
1893.503467	1.5997889	1	55	2	10	2	1	1893.903404	0.800541
1895.103233	1.5997919	1	56	2	9	2	n/a	1895.503201	n/a
1896.70281	1.5999888	1	57	2	8	2	n/a	1897.102974	n/a
1898.302687	1.5998897	1	58	2	7	1	n/a	1898.702766	n/a
1899.90252	1.5998233	1	59	2	6	2	n/a	1900.302467	n/a
1901.502357	1.5997235	1	60	2	5	2	n/a	1901.902216	n/a
1903.101948	1.5997956	1	61	2	4	1	n/a	1903.501981	n/a
1904.701873	1.5997724	1	62	2	3	2	n/a	1905.101831	n/a
1906.301585	1.5998242	1	63	2	2	1	n/a	1906.701405	n/a
1907.901406	1.5997831	1	64	2	1	1	n/a	1908.301341	n/a
1909.50117	1.5997915	1	65	5	1	2	n/a	1909.901069	n/a
1911.100906	1.5997844	1	66	5	2	2	n/a	1911.500891	n/a
1912.700714	1.5996222	1	67	5	3	2	n/a	1913.100624	n/a
1914.300552	1.599720568	1	68	5	4	1	n/a	1914.700231	n/a
1915.900219	1.5997994	1	69	5	5	2	n/a	1916.300207	n/a
1917.500035	1.5998027	1	70	5	6	1	n/a	1917.899983	n/a
1919.099825	1.5997867	1	71	5	7	1	n/a	1919.499782	n/a
1920.699595	1.5997027	1	72	5	8	1	n/a	1921.099543	n/a
1922.299367	1.599797	1	73	5	9	1	n/a	1922.699308	n/a
1923.898941	1.5999797	1	74	5	10	2	n/a	1924.299033	n/a
1925.498852	1.5998597	1	75	5	11	1	n/a	1925.89885	n/a
1927.09868	1.5997941	1	76	5	12	2	n/a	1927.498625	n/a
1928.698411	1.5998329	1	77	3	12	1	n/a	1929.098397	n/a
1930.298178	1.599841	1	78	3	11	2	n/a	1930.698169	n/a
1931.897916	1.59987	1	79	3	10	1	n/a	1932.297937	n/a
1933.497766	1.5997862	1	80	3	9	2	n/a	1933.897664	n/a
1935.097436	1.5998886	1	81	3	8	2	n/a	1935.49745	n/a
1936.69734	1.599635814	1	82	3	7	2	n/a	1937.097258	n/a
1938.297084	1.5997921	1	83	3	6	1	n/a	1938.697021	n/a
1939.896669	1.5999751	1	84	3	5	1	n/a	1940.296695	n/a
1941.496635	1.5997803	1	85	3	4	1	n/a	1941.896574	n/a
1943.096402	1.5997775	1	86	3	3	2	n/a	1943.496352	n/a
1944.696167	1.5998022	1	87	3	2	1	n/a	1945.096121	n/a
1946.295947	1.5996349	1	88	3	1	2	n/a	1946.695731	n/a
1947.895718	1.5996542	1	89	6	1	2	n/a	1948.295654	n/a
1949.495514	1.5997629	1	90	6	2	2	n/a	1949.895429	n/a
1951.095201	1.5998415	1	91	6	3	1	n/a	1951.495208	n/a
1952.695041	1.5997805	1	92	6	4	1	n/a	1953.094973	n/a
1954.294804	1.5997844	1	93	6	5	1	n/a	1954.694757	n/a
1955.894563	1.5997885	1	94	6	6	2	n/a	1956.29451	n/a
1957.494171	1.5997971	1	95	6	7	1	n/a	1957.894137	n/a
1959.094052	1.5997968	1	96	6	8	2	n/a	1959.494044	n/a
1960.693886	1.5998371	1	97	6	9	2	n/a	1961.09382	n/a
1962.293659	1.5997808	1	98	6	10	2	n/a	1962.693593	n/a
1963.893281	1.5997678	1	99	6	11	1	n/a	1964.293372	n/a
1965.493191	1.5997567	1	100	6	12	1	n/a	1965.8931	n/a
1967.092965	1.599868386	1	101	5	12	1	n/a	1967.492773	n/a
1968.692803	1.599561414	1	102	5	11	2	n/a	1969.092582	n/a
1970.292505	1.5998146	1	103	5	10	1	n/a	1970.692523	n/a
1971.892299	1.599781	1	104	5	9	2	n/a	1972.292191	n/a
1973.49207	1.5997928	1	105	5	8	1	n/a	1973.892022	n/a
1975.091851	1.5997745	1	106	5	7	1	n/a	1975.49179	n/a
1976.691616	1.5997423	1	107	5	6	1	n/a	1977.091564	n/a
1978.291391	1.5996335	1	108	5	5	1	n/a	1978.691329	n/a
1979.891159	1.599641	1	109	5	4	2	n/a	1980.290956	n/a
1981.490941	1.5997756	1	110	5	3	2	n/a	1981.890743	n/a
1983.090706	1.5997883	1	111	5	2	2	n/a	1983.490493	n/a
1984.690424	1.599845	1	112	5	1	1	n/a	1985.090421	n/a
1986.29027	1.5995969	1	113	3	1	2	n/a	1986.690196	n/a
1987.889862	1.5999601	1	114	3	2	2	n/a	1988.289973	n/a
1989.489798	1.5997859	1	115	3	3	1	n/a	1989.889741	n/a
1991.089567	1.5996445	1	116	3	4	2	n/a	1991.489363	n/a
1992.689369	1.5997696	1	117	3	5	1	n/a	1993.089287	n/a
1994.289122	1.5997275	1	118	3	6	1	n/a	1994.689061	n/a
1995.888894	1.5998235	1	119	3	7	1	n/a	1996.288838	n/a
1997.488659	1.599799	1	120	3	8	1	n/a	1997.888465	n/a
1999.088433	1.5997639	1	121	3	9	1	n/a	1999.488377	n/a
2000.688202	1.599797	1	122	3	10	1	n/a	2001.088156	n/a
2002.287986	1.599629	1	123	3	11	1	n/a	2002.687765	n/a
2003.887677	1.5998727	1	124	3	12	1	n/a	2004.287694	n/a
2005.487474	1.599824	1	125	1	12	2	n/a	2005.887331	n/a
2007.087244	1.5998117	1	126	1	11	2	n/a	2007.487233	n/a
2008.687055	1.5997412	1	127	1	10	1	n/a	2009.086999	n/a
2010.286842	1.5997732	1	128	1	9	1	n/a	2010.686734	n/a
2011.886466	1.5999085	1	129	1	8	1	n/a	2012.286548	n/a
2013.486375	1.5997873	1	130	1	7	2	n/a	2013.886312	n/a
2015.085995	1.5999369	1	131	1	6	1	n/a	2015.486049	n/a
2016.685878	1.5998503	1	132	1	5	1	n/a	2017.085862	n/a
2018.285708	1.5997889	1	133	1	4	2	n/a	2018.685649	n/a
2019.88548	1.5997883	1	134	1	3	1	n/a	2020.285422	n/a
2021.485259	1.5997355	1	135	1	2	1	n/a	2021.885237	n/a
2023.084873	1.5999396	1	136	1	1	1	n/a	2023.484976	n/a
2024.684801	1.59968	1	137	4	1	1	n/a	2025.084742	n/a
2026.284427	1.5999246	1	138	4	2	1	n/a	2026.684511	n/a
2027.884336	1.5996644	1	139	4	3	2	n/a	2028.284268	n/a
2029.484122	1.5997333	1	140	4	4	2	n/a	2029.883939	n/a
2031.083891	1.5997796	1	141	4	5	2	n/a	2031.483644	n/a
2032.683662	1.599642	1	142	4	6	1	n/a	2033.083455	n/a
2034.283438	1.5997836	1	143	4	7	1	n/a	2034.683419	n/a
2035.883091	1.5999167	1	144	4	8	1	n/a	2036.28315	n/a
2037.482942	1.5998278	1	145	4	9	2	n/a	2037.882945	n/a
2039.082777	1.5997598	1	146	4	10	1	n/a	2039.482499	n/a
2040.682514	1.5998032	1	147	4	11	1	n/a	2041.08247	n/a
2042.282289	1.599797	1	148	4	12	1	n/a	2042.682287	n/a
2043.882064	1.5996483	1	149	7	13	3	n/a	2044.28186	n/a
2045.48185	1.5997792	1	150	7	13	3	n/a	2045.881791	n/a
2047.081574	1.5998305	1	151	7	13	3	n/a	2047.481551	n/a
2048.681328	1.5998488	1	152	7	13	3	n/a	2049.081328	n/a
