onset	duration	run_number	trial_number	spatial_frequency	michelson_contrast	probe_orientation	response_correctness	probe_time	reaction_time
88466.03842	1.600242629	4	1	7	13	3	n/a	88466.43848	n/a
88467.63856	1.600253405	4	2	7	13	3	n/a	88468.03863	n/a
88469.23882	1.60022339	4	3	7	13	3	n/a	88469.63888	n/a
88470.83906	1.600220938	4	4	7	13	3	n/a	88471.23911	n/a
88472.4393	1.600233261	4	5	6	12	1	1	88472.83937	0.4037734595
88474.03955	1.600230019	4	6	6	11	1	0	88474.43961	0.704417121
88475.63978	1.600242848	4	7	6	10	1	0	88476.03987	0.5025742824
88477.24004	1.600233933	4	8	6	9	2	0	88477.64009	0.3027198071
88478.84029	1.600220076	4	9	6	8	1	1	88479.24037	0.3046680147
88480.44062	1.60013037	4	10	6	7	2	1	88480.84058	0.2032546497
88482.04078	1.600258265	4	11	6	6	2	1	88482.44085	0.3026037546
88483.64101	1.60030246	4	12	6	5	1	1	88484.04108	0.3030844416
88485.2413	1.600272748	4	13	6	4	1	0	88485.64137	0.3052953125
88486.84159	1.600242427	4	14	6	3	2	0	88487.24168	0.3030914645
88488.44186	1.600126405	4	15	6	2	2	1	88488.84193	0.4039974408
88490.04199	1.600243785	4	16	6	1	2	0	88490.44204	0.3026039725
88491.64224	1.600288594	4	17	2	1	2	0	88492.0423	0.2024775111
88493.24249	1.608577547	4	18	2	2	1	0	88493.64254	0.3024677595
88494.85107	1.600053857	4	19	2	3	1	1	88495.25113	0.3032776497
88496.45133	1.600219043	4	20	2	4	2	1	88496.85137	0.4028107358
88498.05155	1.600246243	4	21	2	5	2	1	88498.45163	0.4026495021
88499.65181	1.600218592	4	22	2	6	2	1	88500.05187	0.4032150784
88501.25206	1.600253563	4	23	2	7	1	1	88501.65213	0.4026912932
88502.85234	1.600262519	4	24	2	8	2	1	88503.25242	0.5012747502
88504.45263	1.60023816	4	25	2	9	1	1	88504.85271	0.401264721
88506.0529	1.600097745	4	26	2	10	1	1	88506.45296	0.401037626
88507.65301	1.600267953	4	27	2	11	1	1	88508.05309	0.4024551389
88509.2533	1.600282315	4	28	2	12	2	1	88509.65336	0.4019479484
88510.85359	1.600263344	4	29	4	12	1	1	88511.25365	0.5012645955
88512.45388	1.600240448	4	30	4	11	1	1	88512.85394	0.5010288309
88514.05401	1.600287734	4	31	4	10	1	1	88514.45409	0.4023281327
88515.65431	1.600271787	4	32	4	9	1	1	88516.05439	0.5014277511
88517.25461	1.600242885	4	33	4	8	2	0	88517.65468	0.3007185547
88518.85475	1.600222956	4	34	4	7	2	1	88519.25481	0.3025251775
88520.45498	1.600246005	4	35	4	6	1	1	88520.85503	0.5022726725
88522.05523	1.600249494	4	36	4	5	1	0	88522.45529	0.3026089873
88523.65548	1.600238841	4	37	4	4	2	0	88524.05553	0.3030840398
88525.25574	1.600325395	4	38	4	3	2	1	88525.6558	0.2023878645
88526.85596	1.600245095	4	39	4	2	2	0	88527.25604	0.3024815497
88528.45621	1.600247428	4	40	4	1	2	1	88528.85628	0.3024060833
88530.05647	1.600227299	4	41	1	1	1	1	88530.45652	0.1025460021
88531.65672	1.60024168	4	42	1	2	2	1	88532.05675	0.1025401053
88533.25697	1.600271234	4	43	1	3	1	1	88533.65705	0.2019561663
88534.85727	1.600258853	4	44	1	4	1	0	88535.25735	0.5010065421
88536.45756	1.600214442	4	45	1	5	1	1	88536.85762	0.4010615022
88538.05769	1.600227757	4	46	1	6	1	0	88538.45774	0.4028429389
88539.65803	1.600120302	4	47	1	7	1	1	88540.05801	0.2030187299
88541.25819	1.600228437	4	48	1	8	1	1	88541.65824	0.5028710775
88542.85842	1.600242961	4	49	1	9	1	1	88543.2585	0.5006482775
88544.45867	1.600247205	4	50	1	10	2	1	88544.85874	0.5027989784
88546.05891	1.600243205	4	51	1	11	1	1	88546.45898	0.4025310923
88547.65916	1.600227876	4	52	1	12	1	1	88548.05935	0.4023145636
88549.25952	1.600138112	4	53	2	12	2	1	88549.65948	0.3025026497
88550.85968	1.600318398	4	54	2	11	2	1	88551.25976	0.4015804632
88552.45997	1.600253878	4	55	2	10	2	1	88552.86004	0.5010391627
88554.06027	1.600225061	4	56	2	9	2	1	88554.46032	0.5009521022
88555.66051	1.600090759	4	57	2	8	2	1	88556.06042	0.4027673519
88557.26061	1.600240665	4	58	2	7	2	1	88557.66068	0.5032446479
88558.8609	1.600196419	4	59	2	6	2	0	88559.26094	0.5026426102
88560.46113	1.600232381	4	60	2	5	1	1	88560.86118	0.5025393963
88562.06137	1.600234166	4	61	2	4	1	1	88562.46142	0.7022149299
88563.66162	1.600213753	4	62	2	3	1	1	88564.06167	0.502762016
88565.26193	1.600147226	4	63	2	2	1	0	88565.66192	0.3024140497
88566.86212	1.60020591	4	64	2	1	2	0	88567.26218	0.2024172178
88568.46235	1.600243753	4	65	5	1	1	0	88568.86242	0.1021569775
88570.06259	1.600247108	4	66	5	2	1	1	88570.46268	0.1023918021
88571.66286	1.6002597	4	67	5	3	2	1	88572.06294	0.2020352663
88573.26316	1.600269982	4	68	5	4	1	1	88573.66323	0.2011219233
88574.86346	1.600082603	4	69	5	5	2	1	88575.26351	0.2011367834
88576.46357	1.600197444	4	70	5	6	2	0	88576.86363	0.2031868568
88578.06381	1.600339639	4	71	5	7	2	1	88578.46388	0.10285473
88579.66406	1.60024427	4	72	5	8	2	0	88580.06412	0.2028968586
88581.26432	1.600223114	4	73	5	9	1	1	88581.66438	0.4025211923
88582.86457	1.600230824	4	74	5	10	1	1	88583.26463	0.302186012
88584.46481	1.600239039	4	75	5	11	2	1	88584.86486	0.5027531021
88586.06504	1.600242865	4	76	5	12	2	1	88586.46511	0.5025980595
88587.66532	1.60021784	4	77	3	12	2	1	88588.06536	0.5024984636
88589.26555	1.6002256	4	78	3	11	2	1	88589.66562	0.5027352515
88590.86579	1.600240634	4	79	3	10	2	1	88591.26585	0.5027003932
88592.46608	1.600200623	4	80	3	9	2	1	88592.86609	0.5027525447
88594.06629	1.600277334	4	81	3	8	1	1	88594.46635	0.4023575802
88595.66657	1.600316878	4	82	3	7	1	1	88596.06665	0.4014888511
88597.26687	1.600260965	4	83	3	6	1	1	88597.66695	0.5005079359
88598.86713	1.600115211	4	84	3	5	2	1	88599.26719	0.6005766022
88600.46726	1.600231396	4	85	3	4	2	1	88600.86735	0.4031467999
88602.06751	1.60022698	4	86	3	3	2	0	88602.46758	0.1025525873
88603.66776	1.600253693	4	87	3	2	2	1	88604.06782	0.1024092111
88605.26802	1.600207652	4	88	3	1	1	n/a	88605.66805	n/a
88606.86826	1.600214167	4	89	6	1	2	1	88607.26831	0.1026194497
88608.4685	1.600219078	4	90	6	2	2	0	88608.86855	0.002319640713
88610.06873	1.600248105	4	91	6	3	1	0	88610.46881	0.1027058021
88611.66897	1.60024419	4	92	6	4	2	0	88612.06904	0.2024935071
88613.26922	1.600239601	4	93	6	5	2	1	88613.66925	0.002985160856
88614.86946	1.600247979	4	94	6	6	1	1	88615.26953	0.002641044732
88616.46972	1.600223353	4	95	6	7	2	1	88616.86978	0.1027448012
88618.06998	1.600224461	4	96	6	8	2	0	88618.47003	0.1026484506
88619.67016	1.60031846	4	97	6	9	1	0	88620.07028	0.2024005923
88621.27047	1.600278182	4	98	6	10	1	1	88621.67056	0.1020547197
88622.87078	1.600273325	4	99	6	11	1	0	88623.27083	0.2011716004
88624.47105	1.600225381	4	100	6	12	2	1	88624.87111	0.7010880121
88626.07117	1.600260046	4	101	5	12	2	1	88626.47124	0.4028462053
88627.67141	1.600259065	4	102	5	11	1	1	88628.07148	0.4029211389
88629.27165	1.600243013	4	103	5	10	2	1	88629.67175	0.602871325
88630.87194	1.60021361	4	104	5	9	2	1	88631.27197	0.6029586479
88632.47216	1.600246561	4	105	5	8	2	1	88632.87223	0.5027594784
88634.07243	1.600246312	4	106	5	7	2	0	88634.47248	0.4024096071
88635.67269	1.600274119	4	107	5	6	1	0	88636.07275	0.3017868147
88637.27297	1.600282201	4	108	5	5	1	1	88637.67306	0.2012662856
88638.87326	1.600226048	4	109	5	4	2	1	88639.27333	0.1010111022
88640.47351	1.600076281	4	110	5	3	1	1	88640.87342	0.1006950402
88642.07364	1.600205762	4	111	5	2	1	0	88642.47369	0.002628267597
88643.67386	1.600245184	4	112	5	1	1	1	88644.07393	0.2030254815
88645.27412	1.600227429	4	113	3	1	2	1	88645.67419	0.2025404923
88646.87438	1.600247079	4	114	3	2	1	1	88647.27446	0.1029288407
88648.47464	1.600218627	4	115	3	3	2	1	88648.87471	0.2024202398
88650.07489	1.600200896	4	116	3	4	1	1	88650.47494	0.1028340456
88651.67513	1.600257652	4	117	3	5	2	1	88652.07519	0.6023819021
88653.27538	1.600227952	4	118	3	6	2	1	88653.67543	0.7025039882
88654.87562	1.600221533	4	119	3	7	1	1	88655.27568	0.4027370941
88656.47587	1.600225005	4	120	3	8	2	1	88656.87593	0.5027551883
88658.07611	1.600222829	4	121	3	9	1	1	88658.47617	0.5026698309
88659.67645	1.600137211	4	122	3	10	2	1	88660.07643	0.5026935793
88661.27661	1.600209834	4	123	3	11	2	1	88661.67667	0.5026611932
88662.87685	1.600227206	4	124	3	12	1	1	88663.2769	0.4027900407
88664.4771	1.600223712	4	125	1	12	1	1	88664.87715	0.502484408
88666.07732	1.6002304	4	126	1	11	1	1	88666.47739	0.402664412
88667.67758	1.600216176	4	127	1	10	1	1	88668.07765	0.4010981882
88669.27782	1.60021682	4	128	1	9	1	1	88669.67789	0.5030143259
88670.87807	1.600237981	4	129	1	8	2	1	88671.27815	0.5027391694
88672.47833	1.600318857	4	130	1	7	2	1	88672.87838	0.7024039972
88674.07857	1.600217998	4	131	1	6	2	1	88674.47863	0.5028597793
88675.67883	1.600215055	4	132	1	5	2	1	88676.07888	0.5020723793
88677.27906	1.600223052	4	133	1	4	1	1	88677.67911	0.4010593981
88678.87931	1.60026594	4	134	1	3	2	1	88679.27936	0.3023009555
88680.47959	1.600273087	4	135	1	2	1	1	88680.87964	0.2018969928
88682.07987	1.600249756	4	136	1	1	2	1	88682.47996	0.2010465399
88683.68015	1.600107944	4	137	4	1	1	1	88684.0802	0.1027347556
88685.28027	1.600225387	4	138	4	2	2	1	88685.68042	0.2025137233
88686.88062	1.60013349	4	139	4	3	1	1	88687.28058	0.3029896586
88688.48075	1.600326912	4	140	4	4	2	1	88688.88083	0.2024378636
88690.08101	1.600223534	4	141	4	5	2	0	88690.48109	0.2020867743
88691.68127	1.600216405	4	142	4	6	2	1	88692.08133	0.1023648694
88693.28152	1.600224396	4	143	4	7	2	1	88693.68158	0.5026206932
88694.88176	1.600240601	4	144	4	8	2	1	88695.28192	0.4022861834
88696.48192	1.600301818	4	145	4	9	1	1	88696.88206	0.5027173932
88698.08226	1.600314963	4	146	4	10	1	1	88698.4823	0.5021605595
88699.68251	1.600210329	4	147	4	11	2	1	88700.08255	0.7028771694
88701.28273	1.600225739	4	148	4	12	2	1	88701.68281	0.5029097456
88702.88302	1.600201174	4	149	7	13	3	n/a	88703.28305	n/a
88704.48323	1.600214967	4	150	7	13	3	n/a	88704.8833	n/a
88706.08348	1.600218106	4	151	7	13	3	n/a	88706.48355	n/a
88707.68373	1.600222201	4	152	7	13	3	n/a	88708.08378	n/a
