onset	duration	run_number	trial_number	bar_direction	bar_period	bar_step	stim_noise_ori	trial_offset	stim_stair_val	response_val	probe_time	reaction_time
5841.315441	1.5507886	1	1	9	1	1	3	5842.866229	n/a	n/a	n/a	n/a
5842.866229	1.5517823	1	2	9	1	2	3	5844.418011	n/a	n/a	n/a	n/a
5844.418011	1.5504084	1	3	9	1	3	3	5845.96842	n/a	n/a	n/a	n/a
5845.96842	1.5505744	1	4	9	1	4	3	5847.518994	n/a	n/a	n/a	n/a
5847.518994	1.549626	1	5	9	1	5	3	5849.06862	n/a	n/a	n/a	n/a
5849.06862	1.5496706	1	6	9	1	6	3	5850.618291	n/a	n/a	n/a	n/a
5850.618291	1.5501714	1	7	9	1	7	3	5852.168462	n/a	n/a	n/a	n/a
5852.168462	1.5505061	1	8	9	1	8	3	5853.718968	n/a	n/a	n/a	n/a
5853.718968	1.5500119	1	9	9	1	9	3	5855.26898	n/a	n/a	n/a	n/a
5855.26898	1.5502773	1	10	9	1	10	3	5856.819258	n/a	n/a	n/a	n/a
5856.819258	1.5503702	1	11	9	1	11	3	5858.369628	n/a	n/a	n/a	n/a
5858.369628	1.5497871	1	12	9	1	12	3	5859.919415	n/a	n/a	n/a	n/a
5859.919415	1.5506877	1	13	1	2	1	2	5861.470103	9	0	5860.403919	0.1101801
5861.470103	1.5500257	1	14	1	2	2	2	5863.020128	10	0	5861.954493	0.7798863
5863.020128	1.5499101	1	15	1	2	3	2	5864.570038	11	1	5863.504455	0.5866936
5864.570038	1.5504183	1	16	1	2	4	1	5866.120457	11	1	5865.054495	0.5864933
5866.120457	1.5504326	1	17	1	2	5	1	5867.670889	11	1	5866.605082	0.4892826
5867.670889	1.5499631	1	18	1	2	6	1	5869.220852	10	1	5868.155164	0.5876374
5869.220852	1.5500704	1	19	1	2	7	1	5870.770923	10	1	5869.705243	0.6836752
5870.770923	1.550233	1	20	1	2	8	1	5872.321156	10	1	5871.255336	0.5867154
5872.321156	1.5503173	1	21	1	2	9	2	5873.871473	9	1	5872.805605	0.780774
5873.871473	1.5502276	1	22	1	2	10	1	5875.421701	9	1	5874.355823	0.5866377
5875.421701	1.5502051	1	23	1	2	11	1	5876.971906	9	1	5875.906119	0.4891048
5876.971906	1.5504297	1	24	1	2	12	2	5878.522335	8	1	5877.456354	0.492679
5878.522335	1.5501475	1	25	1	2	13	2	5880.072483	8	1	5879.006877	0.5869335
5880.072483	1.5505113	1	26	1	2	14	2	5881.622994	8	1	5880.556862	0.7817417
5881.622994	1.550228	1	27	1	2	15	2	5883.173222	7	1	5882.107327	0.7805052
5883.173222	1.5502069	1	28	1	2	16	2	5884.723429	7	1	5883.657861	0.8772964
5884.723429	1.5497527	1	29	1	2	17	1	5886.273182	7	1	5885.207547	0.7803356
5886.273182	1.5504983	1	30	1	2	18	2	5887.82368	6	1	5886.757945	0.8772042
5887.82368	1.5497003	1	31	1	2	19	2	5889.373381	6	1	5888.307836	0.877033
5889.373381	1.5504591	1	32	1	2	20	1	5890.92384	6	1	5889.857807	0.8777166
5890.92384	1.5498114	1	33	1	2	21	2	5892.473651	5	1	5891.408135	0.7802064
5892.473651	1.5502423	1	34	1	2	22	1	5894.023893	5	1	5892.958322	0.7800207
5894.023893	1.5503338	1	35	1	2	23	2	5895.574227	5	1	5894.508093	0.7802791
5895.574227	1.5502694	1	36	1	2	24	1	5897.124496	4	1	5896.058753	0.7802107
5897.124496	1.5501052	1	37	1	2	25	2	5898.674602	4	1	5897.608903	0.974048
5898.674602	1.5504499	1	38	1	2	26	1	5900.225052	4	1	5899.159149	0.8775533
5900.225052	1.5498696	1	39	1	2	27	1	5901.774921	3	0	5900.709342	0.8773182
5901.774921	1.5501332	1	40	1	2	28	2	5903.325054	4	0	5902.259464	0.8774325
5903.325054	1.550156	1	41	1	2	29	1	5904.87521	5	n/a	5903.809366	n/a
5904.87521	1.550385	1	42	1	2	30	2	5906.425595	5	0	5905.359817	0.9737512
5906.425595	1.5499784	1	43	1	2	31	1	5907.975574	6	0	5906.910252	0.9733902
5907.975574	1.5498392	1	44	1	2	32	1	5909.525413	7	1	5908.459757	0.9733956
5909.525413	1.5499969	1	45	9	3	1	3	5911.07541	n/a	n/a	n/a	n/a
5911.07541	1.5501307	1	46	9	3	2	3	5912.625541	n/a	n/a	n/a	n/a
5912.625541	1.5504661	1	47	9	3	3	3	5914.176007	n/a	n/a	n/a	n/a
5914.176007	1.5502011	1	48	9	3	4	3	5915.726208	n/a	n/a	n/a	n/a
5915.726208	1.5501626	1	49	9	3	5	3	5917.27637	n/a	n/a	n/a	n/a
5917.27637	1.5503267	1	50	9	3	6	3	5918.826697	n/a	n/a	n/a	n/a
5918.826697	1.5497671	1	51	9	3	7	3	5920.376464	n/a	n/a	n/a	n/a
5920.376464	1.5502336	1	52	9	3	8	3	5921.926698	n/a	n/a	n/a	n/a
5921.926698	1.5498251	1	53	9	3	9	3	5923.476523	n/a	n/a	n/a	n/a
5923.476523	1.5505495	1	54	9	3	10	3	5925.027072	n/a	n/a	n/a	n/a
5925.027072	1.5503327	1	55	9	3	11	3	5926.577405	n/a	n/a	n/a	n/a
5926.577405	1.5501505	1	56	9	3	12	3	5928.127556	n/a	n/a	n/a	n/a
5928.127556	1.5499975	1	57	3	4	1	1	5929.677553	7	n/a	5928.611966	n/a
5929.677553	1.5502618	1	58	3	4	2	2	5931.227815	7	0	5930.162425	0.682931
5931.227815	1.5500746	1	59	3	4	3	2	5932.77789	8	1	5931.712114	0.1266242
5932.77789	1.5507373	1	60	3	4	4	2	5934.328627	8	0	5933.262525	0.9739787
5934.328627	1.5499965	1	61	3	4	5	2	5935.878623	9	0	5934.813036	0.7798849
5935.878623	1.5501657	1	62	3	4	6	1	5937.428789	10	1	5936.362947	0.6833009
5937.428789	1.5495748	1	63	3	4	7	1	5938.978364	10	1	5937.912981	0.6835663
5938.978364	1.5503278	1	64	3	4	8	2	5940.528692	10	1	5939.463008	0.5865958
5940.528692	1.5509753	1	65	3	4	9	2	5942.079667	9	1	5941.013172	0.5876087
5942.079667	1.5499384	1	66	3	4	10	2	5943.629605	9	1	5942.564025	0.5861247
5943.629605	1.5503595	1	67	3	4	11	2	5945.179965	9	1	5944.11425	0.6837306
5945.179965	1.5500821	1	68	3	4	12	2	5946.730047	8	1	5945.664266	0.5868486
5946.730047	1.5503935	1	69	3	4	13	2	5948.28044	8	1	5947.21469	0.7805709
5948.28044	1.5499222	1	70	3	4	14	2	5949.830363	8	1	5948.764894	0.8768662
5949.830363	1.5503888	1	71	3	4	15	2	5951.380751	7	1	5950.314933	0.8777303
5951.380751	1.5495546	1	72	3	4	16	2	5952.930306	7	1	5951.865267	0.9733896
5952.930306	1.5500702	1	73	3	4	17	2	5954.480376	7	n/a	5953.414694	n/a
5954.480376	1.5496611	1	74	3	4	18	2	5956.030037	7	n/a	5954.96441	n/a
5956.030037	1.5503645	1	75	3	4	19	2	5957.580402	7	n/a	5956.514243	n/a
5957.580402	1.5496326	1	76	3	4	20	2	5959.130034	7	n/a	5958.064751	n/a
5959.130034	1.5499171	1	77	3	4	21	2	5960.679952	7	n/a	5959.61448	n/a
5960.679952	1.5501647	1	78	3	4	22	2	5962.230116	7	n/a	5961.164411	n/a
5962.230116	1.5502609	1	79	3	4	23	1	5963.780377	7	1	5962.714703	0.6838445
5963.780377	1.5498977	1	80	3	4	24	1	5965.330275	6	1	5964.26476	0.6835357
5965.330275	1.5504632	1	81	3	4	25	2	5966.880738	6	1	5965.814763	0.781281
5966.880738	1.5497641	1	82	3	4	26	1	5968.430502	6	1	5967.364997	0.8774497
5968.430502	1.5502127	1	83	3	4	27	2	5969.980715	5	1	5968.91524	0.8773033
5969.980715	1.5506595	1	84	3	4	28	1	5971.531374	5	1	5970.465278	0.7805873
5971.531374	1.5503393	1	85	3	4	29	2	5973.081714	5	1	5972.015986	0.8767468
5973.081714	1.5497666	1	86	3	4	30	1	5974.63148	4	1	5973.566007	0.780086
5974.63148	1.550713	1	87	3	4	31	2	5976.182193	4	n/a	5975.116205	n/a
5976.182193	1.5499546	1	88	3	4	32	2	5977.732148	4	n/a	5976.666438	n/a
5977.732148	1.5499206	1	89	9	5	1	3	5979.282068	n/a	n/a	n/a	n/a
5979.282068	1.550213	1	90	9	5	2	3	5980.832281	n/a	n/a	n/a	n/a
5980.832281	1.5506624	1	91	9	5	3	3	5982.382944	n/a	n/a	n/a	n/a
5982.382944	1.5501998	1	92	9	5	4	3	5983.933144	n/a	n/a	n/a	n/a
5983.933144	1.549783	1	93	9	5	5	3	5985.482927	n/a	n/a	n/a	n/a
5985.482927	1.5504299	1	94	9	5	6	3	5987.033357	n/a	n/a	n/a	n/a
5987.033357	1.5501118	1	95	9	5	7	3	5988.583468	n/a	n/a	n/a	n/a
5988.583468	1.5501772	1	96	9	5	8	3	5990.133646	n/a	n/a	n/a	n/a
5990.133646	1.5500778	1	97	9	5	9	3	5991.683723	n/a	n/a	n/a	n/a
5991.683723	1.5503751	1	98	9	5	10	3	5993.234098	n/a	n/a	n/a	n/a
5993.234098	1.5494343	1	99	9	5	11	3	5994.783533	n/a	n/a	n/a	n/a
5994.783533	1.5494936	1	100	9	5	12	3	5996.333026	n/a	n/a	n/a	n/a
5996.333026	1.550803	1	101	5	6	1	2	5997.883829	4	1	5996.817844	0.2955459
5997.883829	1.5500501	1	102	5	6	2	2	5999.433879	4	0	5998.368475	0.2956703
5999.433879	1.5504551	1	103	5	6	3	1	6000.984334	5	1	5999.91852	0.6835338
6000.984334	1.5501538	1	104	5	6	4	1	6002.534488	5	1	6001.468874	0.8767575
6002.534488	1.5501583	1	105	5	6	5	1	6004.084647	5	1	6003.018995	0.9736448
6004.084647	1.5503426	1	106	5	6	6	2	6005.634989	4	1	6004.569026	0.7802467
6005.634989	1.5501822	1	107	5	6	7	1	6007.185171	4	1	6006.11931	0.6835721
6007.185171	1.550242	1	108	5	6	8	1	6008.735413	4	1	6007.669656	0.5863566
6008.735413	1.5500005	1	109	5	6	9	1	6010.285414	3	1	6009.219773	0.6834289
6010.285414	1.5503081	1	110	5	6	10	2	6011.835722	3	0	6010.769789	0.6829817
6011.835722	1.550211	1	111	5	6	11	1	6013.385933	4	1	6012.320111	0.5863641
6013.385933	1.5502328	1	112	5	6	12	1	6014.936166	4	1	6013.870262	0.6835845
6014.936166	1.5502093	1	113	5	6	13	1	6016.486375	4	1	6015.42074	0.5866046
6016.486375	1.5500662	1	114	5	6	14	1	6018.036441	3	1	6016.970897	0.5862377
6018.036441	1.5500327	1	115	5	6	15	2	6019.586474	3	1	6018.520862	0.5864398
6019.586474	1.5495357	1	116	5	6	16	2	6021.13601	3	1	6020.070514	0.6837941
6021.13601	1.5500292	1	117	5	6	17	2	6022.686039	2	1	6021.620261	0.6832037
6022.686039	1.5498533	1	118	5	6	18	2	6024.235892	2	1	6023.170204	0.7803688
6024.235892	1.5505173	1	119	5	6	19	1	6025.78641	2	0	6024.720178	0.7803092
6025.78641	1.550254	1	120	5	6	20	2	6027.336664	3	0	6026.27062	0.4906902
6027.336664	1.5501596	1	121	5	6	21	1	6028.886823	4	0	6027.820972	0.4897048
6028.886823	1.5499078	1	122	5	6	22	2	6030.436731	5	1	6029.371085	0.4896127
6030.436731	1.550549	1	123	5	6	23	1	6031.98728	5	1	6030.921304	0.5862983
6031.98728	1.5498916	1	124	5	6	24	1	6033.537172	5	1	6032.471809	0.5863415
6033.537172	1.5504907	1	125	5	6	25	2	6035.087662	4	n/a	6034.021816	n/a
6035.087662	1.5502275	1	126	5	6	26	2	6036.63789	4	0	6035.572343	0.9738452
6036.63789	1.5501498	1	127	5	6	27	1	6038.188039	5	n/a	6037.122566	n/a
6038.188039	1.5501189	1	128	5	6	28	2	6039.738158	5	n/a	6038.67256	n/a
6039.738158	1.5501969	1	129	5	6	29	2	6041.288355	5	1	6040.222744	0.0173605
6041.288355	1.5501699	1	130	5	6	30	2	6042.838525	5	0	6041.77294	0.7797161
6042.838525	1.5504267	1	131	5	6	31	1	6044.388952	6	0	6043.323249	0.7799056
6044.388952	1.5499431	1	132	5	6	32	1	6045.938895	7	n/a	6044.873183	n/a
6045.938895	1.5505898	1	133	9	7	1	3	6047.489485	n/a	n/a	n/a	n/a
6047.489485	1.5498827	1	134	9	7	2	3	6049.039367	n/a	n/a	n/a	n/a
6049.039367	1.5501442	1	135	9	7	3	3	6050.589512	n/a	n/a	n/a	n/a
6050.589512	1.5503778	1	136	9	7	4	3	6052.13989	n/a	n/a	n/a	n/a
6052.13989	1.550004	1	137	9	7	5	3	6053.689893	n/a	n/a	n/a	n/a
6053.689893	1.5502564	1	138	9	7	6	3	6055.24015	n/a	n/a	n/a	n/a
6055.24015	1.5500724	1	139	9	7	7	3	6056.790222	n/a	n/a	n/a	n/a
6056.790222	1.5506456	1	140	9	7	8	3	6058.340868	n/a	n/a	n/a	n/a
6058.340868	1.550147	1	141	9	7	9	3	6059.891015	n/a	n/a	n/a	n/a
6059.891015	1.5505325	1	142	9	7	10	3	6061.441547	n/a	n/a	n/a	n/a
6061.441547	1.5504723	1	143	9	7	11	3	6062.99202	n/a	n/a	n/a	n/a
6062.99202	1.5505537	1	144	9	7	12	3	6064.542573	n/a	n/a	n/a	n/a
6064.542573	1.5501402	1	145	7	8	1	2	6066.092714	7	0	6065.027052	0.3960241
6066.092714	1.5504542	1	146	7	8	2	2	6067.643168	8	1	6066.577127	0.5908735
6067.643168	1.5503899	1	147	7	8	3	2	6069.193558	8	1	6068.127735	0.8802045
6069.193558	1.5512225	1	148	7	8	4	2	6070.74478	8	n/a	6069.678492	n/a
6070.74478	1.549773	1	149	7	8	5	2	6072.294553	8	n/a	6071.228931	n/a
6072.294553	1.5497927	1	150	7	8	6	1	6073.844346	8	1	6072.77889	0.8807487
6073.844346	1.5499314	1	151	7	8	7	2	6075.394277	7	n/a	6074.328766	n/a
6075.394277	1.5499529	1	152	7	8	8	2	6076.94423	7	1	6075.87871	0.8801503
6076.94423	1.5500502	1	153	7	8	9	1	6078.49428	7	1	6077.42858	0.7842519
6078.49428	1.5502215	1	154	7	8	10	2	6080.044502	7	1	6078.978848	0.5944344
6080.044502	1.5501828	1	155	7	8	11	1	6081.594685	6	1	6080.528992	0.3971391
6081.594685	1.5505845	1	156	7	8	12	1	6083.145269	6	0	6082.079167	0.4008462
6083.145269	1.5501248	1	157	7	8	13	1	6084.695394	7	1	6083.629443	0.5948887
6084.695394	1.5498668	1	158	7	8	14	1	6086.245261	7	1	6085.179579	0.9780854
6086.245261	1.5504035	1	159	7	8	15	2	6087.795664	7	1	6086.729969	0.9826484
6087.795664	1.5504126	1	160	7	8	16	1	6089.346077	6	n/a	6088.280215	n/a
6089.346077	1.5507193	1	161	7	8	17	1	6090.896796	6	n/a	6089.830496	n/a
6090.896796	1.5504527	1	162	7	8	18	1	6092.447249	6	n/a	6091.381345	n/a
6092.447249	1.5499328	1	163	7	8	19	1	6093.997182	6	n/a	6092.931763	n/a
6093.997182	1.5503348	1	164	7	8	20	1	6095.547516	6	n/a	6094.481791	n/a
6095.547516	1.5503189	1	165	7	8	21	2	6097.097835	6	n/a	6096.03201	n/a
6097.097835	1.550363	1	166	7	8	22	2	6098.648198	6	1	6097.582333	0.0203962
6098.648198	1.5504954	1	167	7	8	23	1	6100.198694	6	1	6099.132824	0.4989408
6100.198694	1.5501832	1	168	7	8	24	2	6101.748877	6	1	6100.683162	0.4935999
6101.748877	1.5497775	1	169	7	8	25	1	6103.298655	5	1	6102.233121	0.6874144
6103.298655	1.5505951	1	170	7	8	26	2	6104.84925	5	0	6103.783238	0.6878745
6104.84925	1.5501176	1	171	7	8	27	2	6106.399367	6	0	6105.333578	0.7840636
6106.399367	1.5499036	1	172	7	8	28	2	6107.949271	7	1	6106.883801	0.3965669
6107.949271	1.5505992	1	173	7	8	29	2	6109.49987	7	n/a	6108.433802	n/a
6109.49987	1.5501559	1	174	7	8	30	2	6111.050026	7	0	6109.984285	0.4000744
6111.050026	1.550237	1	175	7	8	31	1	6112.600263	8	n/a	6111.534379	n/a
6112.600263	1.5501333	1	176	7	8	32	2	6114.150396	8	n/a	6113.084562	n/a
6114.150396	1.5500403	1	177	9	9	1	3	6115.700437	n/a	n/a	n/a	n/a
6115.700437	1.5501869	1	178	9	9	2	3	6117.250623	n/a	n/a	n/a	n/a
6117.250623	1.5508915	1	179	9	9	3	3	6118.801515	n/a	n/a	n/a	n/a
6118.801515	1.550489	1	180	9	9	4	3	6120.352004	n/a	n/a	n/a	n/a
6120.352004	1.5500814	1	181	9	9	5	3	6121.902085	n/a	n/a	n/a	n/a
6121.902085	1.5501794	1	182	9	9	6	3	6123.452265	n/a	n/a	n/a	n/a
6123.452265	1.5504042	1	183	9	9	7	3	6125.002669	n/a	n/a	n/a	n/a
6125.002669	1.5501684	1	184	9	9	8	3	6126.552837	n/a	n/a	n/a	n/a
6126.552837	1.550066	1	185	9	9	9	3	6128.102903	n/a	n/a	n/a	n/a
6128.102903	1.5506098	1	186	9	9	10	3	6129.653513	n/a	n/a	n/a	n/a
6129.653513	1.5509032	1	187	9	9	11	3	6131.204416	n/a	n/a	n/a	n/a
6131.204416	1.5505551	1	188	9	9	12	3	6132.754971	n/a	n/a	n/a	n/a
