onset	duration	run_number	trial_number	bar_direction	bar_period	bar_step	stim_noise_ori	trial_offset	stim_stair_val	response_val	probe_time	reaction_time
13186.49509	1.550824	3	1	9	1	1	3	13188.04591	n/a	n/a	n/a	n/a
13188.04591	1.5504532	3	2	9	1	2	3	13189.59636	n/a	n/a	n/a	n/a
13189.59636	1.5506131	3	3	9	1	3	3	13191.14698	n/a	n/a	n/a	n/a
13191.14698	1.5501318	3	4	9	1	4	3	13192.69711	n/a	n/a	n/a	n/a
13192.69711	1.5503669	3	5	9	1	5	3	13194.24747	n/a	n/a	n/a	n/a
13194.24747	1.5503046	3	6	9	1	6	3	13195.79778	n/a	n/a	n/a	n/a
13195.79778	1.5496758	3	7	9	1	7	3	13197.34746	n/a	n/a	n/a	n/a
13197.34746	1.5502823	3	8	9	1	8	3	13198.89774	n/a	n/a	n/a	n/a
13198.89774	1.5505065	3	9	9	1	9	3	13200.44824	n/a	n/a	n/a	n/a
13200.44824	1.5503712	3	10	9	1	10	3	13201.99862	n/a	n/a	n/a	n/a
13201.99862	1.549687	3	11	9	1	11	3	13203.5483	n/a	n/a	n/a	n/a
13203.5483	1.5503941	3	12	9	1	12	3	13205.0987	n/a	n/a	n/a	n/a
13205.0987	1.5500478	3	13	1	2	1	1	13206.64874	7	n/a	13205.58306	n/a
13206.64874	1.5504077	3	14	1	2	2	1	13208.19915	7	0	13207.13343	0.3921962
13208.19915	1.5503236	3	15	1	2	3	1	13209.74948	8	1	13208.68355	0.2958053
13209.74948	1.5504502	3	16	1	2	4	1	13211.29993	8	0	13210.23391	0.3930218
13211.29993	1.5502411	3	17	1	2	5	2	13212.85017	9	0	13211.78428	0.4898972
13212.85017	1.5503498	3	18	1	2	6	2	13214.40052	10	1	13213.33473	0.2959007
13214.40052	1.5505722	3	19	1	2	7	2	13215.95109	10	1	13214.88509	0.3933579
13215.95109	1.5503175	3	20	1	2	8	2	13217.50141	10	1	13216.43556	0.4903126
13217.50141	1.5502888	3	21	1	2	9	2	13219.0517	9	1	13217.98581	0.490014
13219.0517	1.5502167	3	22	1	2	10	1	13220.60191	9	1	13219.53623	0.4896529
13220.60191	1.5502646	3	23	1	2	11	1	13222.15218	9	1	13221.08634	0.4897799
13222.15218	1.5495398	3	24	1	2	12	1	13223.70172	8	1	13222.63623	0.3938851
13223.70172	1.5509707	3	25	1	2	13	2	13225.25269	8	1	13224.18625	0.2968762
13225.25269	1.5500124	3	26	1	2	14	2	13226.8027	8	1	13225.7372	0.3931884
13226.8027	1.5501343	3	27	1	2	15	2	13228.35283	7	1	13227.28692	0.4900828
13228.35283	1.5503233	3	28	1	2	16	1	13229.90316	7	1	13228.8372	0.5874482
13229.90316	1.5500964	3	29	1	2	17	1	13231.45325	7	1	13230.38762	0.4893995
13231.45325	1.5504807	3	30	1	2	18	2	13233.00373	6	1	13231.93778	0.6834699
13233.00373	1.549744	3	31	1	2	19	1	13234.55348	6	1	13233.48789	0.4895311
13234.55348	1.5502811	3	32	1	2	20	2	13236.10376	6	1	13235.03797	0.48933
13236.10376	1.550384	3	33	1	2	21	2	13237.65414	5	1	13236.58797	0.8774897
13237.65414	1.550159	3	34	1	2	22	1	13239.2043	5	1	13238.13874	0.4892594
13239.2043	1.5502867	3	35	1	2	23	1	13240.75459	5	1	13239.68894	0.3928085
13240.75459	1.5497982	3	36	1	2	24	1	13242.30439	4	0	13241.23887	0.5863001
13242.30439	1.5504238	3	37	1	2	25	1	13243.85481	5	0	13242.78892	0.7801085
13243.85481	1.5503869	3	38	1	2	26	2	13245.4052	6	1	13244.33928	0.7797331
13245.4052	1.5499677	3	39	1	2	27	2	13246.95517	6	1	13245.8894	0.780556
13246.95517	1.5501431	3	40	1	2	28	2	13248.50531	6	1	13247.43973	0.6829133
13248.50531	1.5502033	3	41	1	2	29	2	13250.05551	5	1	13248.98966	0.7798709
13250.05551	1.5504462	3	42	1	2	30	1	13251.60596	5	0	13250.53994	0.6829534
13251.60596	1.5501082	3	43	1	2	31	1	13253.15607	6	1	13252.09048	0.6830082
13253.15607	1.5501296	3	44	1	2	32	2	13254.7062	6	0	13253.64021	0.7797557
13254.7062	1.5498256	3	45	9	3	1	3	13256.25602	n/a	n/a	n/a	n/a
13256.25602	1.5501731	3	46	9	3	2	3	13257.80619	n/a	n/a	n/a	n/a
13257.80619	1.5500573	3	47	9	3	3	3	13259.35625	n/a	n/a	n/a	n/a
13259.35625	1.5503028	3	48	9	3	4	3	13260.90655	n/a	n/a	n/a	n/a
13260.90655	1.5505993	3	49	9	3	5	3	13262.45715	n/a	n/a	n/a	n/a
13262.45715	1.5503501	3	50	9	3	6	3	13264.0075	n/a	n/a	n/a	n/a
13264.0075	1.550364	3	51	9	3	7	3	13265.55787	n/a	n/a	n/a	n/a
13265.55787	1.5500412	3	52	9	3	8	3	13267.10791	n/a	n/a	n/a	n/a
13267.10791	1.5504309	3	53	9	3	9	3	13268.65834	n/a	n/a	n/a	n/a
13268.65834	1.5503051	3	54	9	3	10	3	13270.20865	n/a	n/a	n/a	n/a
13270.20865	1.5502253	3	55	9	3	11	3	13271.75887	n/a	n/a	n/a	n/a
13271.75887	1.5500179	3	56	9	3	12	3	13273.30889	n/a	n/a	n/a	n/a
13273.30889	1.5504364	3	57	3	4	1	2	13274.85932	7	n/a	13273.79342	n/a
13274.85932	1.5503263	3	58	3	4	2	2	13276.40965	7	n/a	13275.3437	n/a
13276.40965	1.550132	3	59	3	4	3	1	13277.95978	7	n/a	13276.89392	n/a
13277.95978	1.5500559	3	60	3	4	4	1	13279.50984	7	1	13278.44433	0.682653
13279.50984	1.5500518	3	61	3	4	5	2	13281.05989	7	1	13279.99423	0.7801673
13281.05989	1.5501602	3	62	3	4	6	2	13282.61005	7	0	13281.54433	0.4895339
13282.61005	1.5500461	3	63	3	4	7	2	13284.1601	8	1	13283.09438	0.4895236
13284.1601	1.5501616	3	64	3	4	8	2	13285.71026	8	1	13284.64456	0.4895082
13285.71026	1.5505472	3	65	3	4	9	2	13287.26081	8	1	13286.19488	0.4892778
13287.26081	1.5497293	3	66	3	4	10	2	13288.81054	7	1	13287.74496	0.4897139
13288.81054	1.5505105	3	67	3	4	11	2	13290.36105	7	1	13289.29475	0.3932778
13290.36105	1.550187	3	68	3	4	12	2	13291.91123	7	1	13290.8455	0.4895403
13291.91123	1.5502951	3	69	3	4	13	2	13293.46153	6	1	13292.39579	0.4901491
13293.46153	1.5501154	3	70	3	4	14	2	13295.01164	6	1	13293.94598	0.3928499
13295.01164	1.5500409	3	71	3	4	15	1	13296.56168	6	1	13295.49604	0.5867844
13296.56168	1.5501327	3	72	3	4	16	2	13298.11182	5	1	13297.04611	0.5866364
13298.11182	1.5501728	3	73	3	4	17	2	13299.66199	5	1	13298.59626	0.5869053
13299.66199	1.550254	3	74	3	4	18	2	13301.21224	5	1	13300.14643	0.4894291
13301.21224	1.5501054	3	75	3	4	19	2	13302.76235	4	1	13301.69656	0.4897097
13302.76235	1.5504578	3	76	3	4	20	1	13304.31281	4	1	13303.24659	0.4899479
13304.31281	1.5500034	3	77	3	4	21	2	13305.86281	4	1	13304.79712	0.3928494
13305.86281	1.5501377	3	78	3	4	22	1	13307.41295	3	0	13306.347	0.3928768
13307.41295	1.5502367	3	79	3	4	23	1	13308.96318	4	1	13307.89751	0.1990945
13308.96318	1.5502954	3	80	3	4	24	1	13310.51348	4	1	13309.44761	0.4900816
13310.51348	1.5500765	3	81	3	4	25	1	13312.06356	4	0	13310.99804	0.7805733
13312.06356	1.5502569	3	82	3	4	26	1	13313.61381	5	1	13312.54796	0.6836942
13313.61381	1.5500547	3	83	3	4	27	2	13315.16387	5	1	13314.09824	0.8780896
13315.16387	1.5503512	3	84	3	4	28	2	13316.71422	5	1	13315.64847	0.6830901
13316.71422	1.5500578	3	85	3	4	29	2	13318.26428	4	1	13317.19876	0.8769515
13318.26428	1.549828	3	86	3	4	30	2	13319.8141	4	0	13318.7485	0.9734916
13319.8141	1.5500384	3	87	3	4	31	2	13321.36414	5	0	13320.29856	0.7807834
13321.36414	1.5502325	3	88	3	4	32	2	13322.91438	6	n/a	13321.84858	n/a
13322.91438	1.5500054	3	89	9	5	1	3	13324.46438	n/a	n/a	n/a	n/a
13324.46438	1.5496741	3	90	9	5	2	3	13326.01406	n/a	n/a	n/a	n/a
13326.01406	1.5505769	3	91	9	5	3	3	13327.56463	n/a	n/a	n/a	n/a
13327.56463	1.5498924	3	92	9	5	4	3	13329.11452	n/a	n/a	n/a	n/a
13329.11452	1.5505878	3	93	9	5	5	3	13330.66511	n/a	n/a	n/a	n/a
13330.66511	1.5500276	3	94	9	5	6	3	13332.21514	n/a	n/a	n/a	n/a
13332.21514	1.5502692	3	95	9	5	7	3	13333.76541	n/a	n/a	n/a	n/a
13333.76541	1.5504219	3	96	9	5	8	3	13335.31583	n/a	n/a	n/a	n/a
13335.31583	1.5498058	3	97	9	5	9	3	13336.86564	n/a	n/a	n/a	n/a
13336.86564	1.5503403	3	98	9	5	10	3	13338.41598	n/a	n/a	n/a	n/a
13338.41598	1.5506169	3	99	9	5	11	3	13339.96659	n/a	n/a	n/a	n/a
13339.96659	1.5500037	3	100	9	5	12	3	13341.5166	n/a	n/a	n/a	n/a
13341.5166	1.5501969	3	101	5	6	1	2	13343.06679	6	n/a	13342.0009	n/a
13343.06679	1.5502917	3	102	5	6	2	2	13344.61709	6	1	13343.55111	0.5865313
13344.61709	1.5500605	3	103	5	6	3	2	13346.16715	6	1	13345.10147	0.7796809
13346.16715	1.5501808	3	104	5	6	4	1	13347.71733	6	n/a	13346.6517	n/a
13347.71733	1.5502505	3	105	5	6	5	1	13349.26758	6	1	13348.20189	0.7802336
13349.26758	1.549901	3	106	5	6	6	2	13350.81748	5	1	13349.75197	0.8768753
13350.81748	1.5502431	3	107	5	6	7	1	13352.36772	5	1	13351.3021	0.5866287
13352.36772	1.5502102	3	108	5	6	8	1	13353.91793	5	0	13352.85213	0.4901188
13353.91793	1.5505497	3	109	5	6	9	2	13355.46848	6	1	13354.40245	0.5861763
13355.46848	1.5499366	3	110	5	6	10	2	13357.01842	6	1	13355.95275	0.4895581
13357.01842	1.5502526	3	111	5	6	11	1	13358.56867	6	1	13357.50286	0.4897588
13358.56867	1.5499499	3	112	5	6	12	2	13360.11862	5	1	13359.05294	0.3935632
13360.11862	1.5505378	3	113	5	6	13	1	13361.66916	5	1	13360.60331	0.4893576
13361.66916	1.5501562	3	114	5	6	14	1	13363.21932	5	0	13362.15342	0.3923685
13363.21932	1.5502688	3	115	5	6	15	2	13364.76958	6	1	13363.70385	0.3929182
13364.76958	1.5497982	3	116	5	6	16	2	13366.31938	6	1	13365.25381	0.4901615
13366.31938	1.5498323	3	117	5	6	17	2	13367.86921	6	1	13366.8036	0.3924655
13367.86921	1.5494893	3	118	5	6	18	1	13369.4187	5	1	13368.35334	0.392824
13369.4187	1.5506966	3	119	5	6	19	2	13370.9694	5	0	13369.9037	0.2961115
13370.9694	1.5499216	3	120	5	6	20	1	13372.51932	6	1	13371.45369	0.2955974
13372.51932	1.5500891	3	121	5	6	21	1	13374.06941	6	1	13373.00372	0.3931121
13374.06941	1.5504846	3	122	5	6	22	1	13375.6199	6	0	13374.55398	0.2962488
13375.6199	1.5500106	3	123	5	6	23	1	13377.16991	7	1	13376.1041	0.490449
13377.16991	1.5501438	3	124	5	6	24	2	13378.72005	7	1	13377.65444	0.4894514
13378.72005	1.5502813	3	125	5	6	25	1	13380.27033	7	1	13379.20437	0.48971
13380.27033	1.5503763	3	126	5	6	26	2	13381.82071	6	1	13380.7547	0.5867102
13381.82071	1.5501577	3	127	5	6	27	2	13383.37087	6	1	13382.3051	0.4895646
13383.37087	1.550417	3	128	5	6	28	2	13384.92128	6	1	13383.85545	0.4891985
13384.92128	1.5500639	3	129	5	6	29	2	13386.47135	5	1	13385.40605	0.3921947
13386.47135	1.5503237	3	130	5	6	30	1	13388.02167	5	0	13386.95586	0.2953327
13388.02167	1.5499124	3	131	5	6	31	1	13389.57158	6	0	13388.5061	0.3919545
13389.57158	1.5502446	3	132	5	6	32	1	13391.12183	7	0	13390.05594	0.489848
13391.12183	1.5499605	3	133	9	7	1	3	13392.67179	n/a	n/a	n/a	n/a
13392.67179	1.5503791	3	134	9	7	2	3	13394.22217	n/a	n/a	n/a	n/a
13394.22217	1.5498836	3	135	9	7	3	3	13395.77205	n/a	n/a	n/a	n/a
13395.77205	1.5506601	3	136	9	7	4	3	13397.32271	n/a	n/a	n/a	n/a
13397.32271	1.5497663	3	137	9	7	5	3	13398.87248	n/a	n/a	n/a	n/a
13398.87248	1.5505368	3	138	9	7	6	3	13400.42301	n/a	n/a	n/a	n/a
13400.42301	1.5503051	3	139	9	7	7	3	13401.97332	n/a	n/a	n/a	n/a
13401.97332	1.5507309	3	140	9	7	8	3	13403.52405	n/a	n/a	n/a	n/a
13403.52405	1.5501343	3	141	9	7	9	3	13405.07418	n/a	n/a	n/a	n/a
13405.07418	1.5502773	3	142	9	7	10	3	13406.62446	n/a	n/a	n/a	n/a
13406.62446	1.5512201	3	143	9	7	11	3	13408.17568	n/a	n/a	n/a	n/a
13408.17568	1.5499817	3	144	9	7	12	3	13409.72566	n/a	n/a	n/a	n/a
13409.72566	1.5503947	3	145	7	8	1	1	13411.27606	8	n/a	13410.21005	n/a
13411.27606	1.5500649	3	146	7	8	2	2	13412.82612	8	1	13411.76056	0.5898016
13412.82612	1.549932	3	147	7	8	3	1	13414.37605	8	0	13413.31049	0.3980098
13414.37605	1.5503431	3	148	7	8	4	2	13415.9264	9	1	13414.8605	0.4928615
13415.9264	1.5499159	3	149	7	8	5	2	13417.47631	9	1	13416.41068	0.396021
13417.47631	1.5504204	3	150	7	8	6	2	13419.02673	9	1	13417.96109	0.4937624
13419.02673	1.550145	3	151	7	8	7	1	13420.57688	8	1	13419.51126	0.3969692
13420.57688	1.5501034	3	152	7	8	8	1	13422.12698	8	1	13421.06136	0.3966575
13422.12698	1.5501886	3	153	7	8	9	1	13423.67717	8	1	13422.61119	0.399193
13423.67717	1.5502173	3	154	7	8	10	2	13425.22739	7	1	13424.16151	0.3972793
13425.22739	1.5501632	3	155	7	8	11	2	13426.77755	7	1	13425.71188	0.3007795
13426.77755	1.550176	3	156	7	8	12	1	13428.32773	7	1	13427.26181	0.4941522
13428.32773	1.5500606	3	157	7	8	13	1	13429.87779	6	1	13428.8122	0.4933392
13429.87779	1.550409	3	158	7	8	14	1	13431.4282	6	1	13430.36243	0.4965969
13431.4282	1.5499969	3	159	7	8	15	2	13432.97819	6	1	13431.91242	0.4000016
13432.97819	1.5503358	3	160	7	8	16	1	13434.52853	5	1	13433.46267	0.5927092
13434.52853	1.5504	3	161	7	8	17	1	13436.07893	5	1	13435.01319	0.5908223
13436.07893	1.5498485	3	162	7	8	18	1	13437.62878	5	1	13436.56343	0.493749
13437.62878	1.5504725	3	163	7	8	19	1	13439.17925	4	1	13438.11336	0.5930872
13439.17925	1.5502104	3	164	7	8	20	1	13440.72946	4	1	13439.66369	0.4967852
13440.72946	1.5504873	3	165	7	8	21	1	13442.27995	4	1	13441.21397	0.5904905
13442.27995	1.5498656	3	166	7	8	22	2	13443.82981	3	1	13442.76439	0.592903
13443.82981	1.550247	3	167	7	8	23	1	13445.38006	3	1	13444.31435	0.5911288
13445.38006	1.5504332	3	168	7	8	24	1	13446.93049	3	1	13445.86463	0.6892505
13446.93049	1.550185	3	169	7	8	25	2	13448.48068	2	1	13447.41495	0.6872701
13448.48068	1.5501747	3	170	7	8	26	1	13450.03085	2	1	13448.9652	0.4955776
13450.03085	1.5501242	3	171	7	8	27	1	13451.58098	2	1	13450.51535	0.3004204
13451.58098	1.550009	3	172	7	8	28	1	13453.13099	2	0	13452.06536	0.203163
13453.13099	1.5501333	3	173	7	8	29	1	13454.68112	3	0	13453.61545	0.3962216
13454.68112	1.5501358	3	174	7	8	30	2	13456.23126	4	0	13455.16568	0.3986649
13456.23126	1.5504752	3	175	7	8	31	1	13457.78173	5	n/a	13456.71591	n/a
13457.78173	1.5502431	3	176	7	8	32	2	13459.33197	5	n/a	13458.26636	n/a
13459.33197	1.5502524	3	177	9	9	1	3	13460.88223	n/a	n/a	n/a	n/a
13460.88223	1.550107	3	178	9	9	2	3	13462.43233	n/a	n/a	n/a	n/a
13462.43233	1.549914	3	179	9	9	3	3	13463.98225	n/a	n/a	n/a	n/a
13463.98225	1.5507669	3	180	9	9	4	3	13465.53301	n/a	n/a	n/a	n/a
13465.53301	1.550148	3	181	9	9	5	3	13467.08316	n/a	n/a	n/a	n/a
13467.08316	1.5497613	3	182	9	9	6	3	13468.63292	n/a	n/a	n/a	n/a
13468.63292	1.5500265	3	183	9	9	7	3	13470.18295	n/a	n/a	n/a	n/a
13470.18295	1.5507489	3	184	9	9	8	3	13471.7337	n/a	n/a	n/a	n/a
13471.7337	1.5502683	3	185	9	9	9	3	13473.28397	n/a	n/a	n/a	n/a
13473.28397	1.5502409	3	186	9	9	10	3	13474.83421	n/a	n/a	n/a	n/a
13474.83421	1.5499067	3	187	9	9	11	3	13476.38412	n/a	n/a	n/a	n/a
13476.38412	1.5501979	3	188	9	9	12	3	13477.93431	n/a	n/a	n/a	n/a
