onset	duration	run_number	trial_number	bar_direction	bar_period	bar_step	stim_noise_ori	trial_offset	stim_stair_val	response_val	probe_time	reaction_time
6373.496302	1.5507768	2	1	9	1	1	3	6375.047079	n/a	n/a	n/a	n/a
6375.047079	1.5504116	2	2	9	1	2	3	6376.59749	n/a	n/a	n/a	n/a
6376.59749	1.5509655	2	3	9	1	3	3	6378.148456	n/a	n/a	n/a	n/a
6378.148456	1.5503358	2	4	9	1	4	3	6379.698792	n/a	n/a	n/a	n/a
6379.698792	1.5501561	2	5	9	1	5	3	6381.248948	n/a	n/a	n/a	n/a
6381.248948	1.5502521	2	6	9	1	6	3	6382.7992	n/a	n/a	n/a	n/a
6382.7992	1.5501667	2	7	9	1	7	3	6384.349366	n/a	n/a	n/a	n/a
6384.349366	1.5499111	2	8	9	1	8	3	6385.899278	n/a	n/a	n/a	n/a
6385.899278	1.5502207	2	9	9	1	9	3	6387.449498	n/a	n/a	n/a	n/a
6387.449498	1.5502588	2	10	9	1	10	3	6388.999757	n/a	n/a	n/a	n/a
6388.999757	1.5501196	2	11	9	1	11	3	6390.549877	n/a	n/a	n/a	n/a
6390.549877	1.5499679	2	12	9	1	12	3	6392.099845	n/a	n/a	n/a	n/a
6392.099845	1.550136	2	13	1	2	1	2	6393.649981	3	n/a	6392.58432	n/a
6393.649981	1.5503633	2	14	1	2	2	1	6395.200344	3	1	6394.134456	0.4902913
6395.200344	1.5500125	2	15	1	2	3	2	6396.750356	3	1	6395.684775	0.2958423
6396.750356	1.5503831	2	16	1	2	4	1	6398.30074	3	1	6397.235032	0.1992604
6398.30074	1.5503528	2	17	1	2	5	2	6399.851092	2	1	6398.785134	0.206008
6399.851092	1.5504479	2	18	1	2	6	1	6401.40154	2	1	6400.335509	0.4906695
6401.40154	1.5504236	2	19	1	2	7	1	6402.951964	2	0	6401.88592	0.3935756
6402.951964	1.550474	2	20	1	2	8	1	6404.502438	3	1	6403.436511	0.4901771
6404.502438	1.5503537	2	21	1	2	9	1	6406.052792	3	1	6404.986896	0.5884808
6406.052792	1.5504555	2	22	1	2	10	2	6407.603247	3	0	6406.537371	0.6849093
6407.603247	1.5503208	2	23	1	2	11	1	6409.153568	4	1	6408.087647	0.58704
6409.153568	1.5501779	2	24	1	2	12	1	6410.703746	4	1	6409.63818	0.5863695
6410.703746	1.5503791	2	25	1	2	13	1	6412.254125	4	1	6411.188153	0.5868926
6412.254125	1.5502018	2	26	1	2	14	1	6413.804327	3	0	6412.738702	0.7810695
6413.804327	1.549897	2	27	1	2	15	2	6415.354224	4	1	6414.288541	0.6846633
6415.354224	1.5509959	2	28	1	2	16	1	6416.90522	4	1	6415.839113	0.8775357
6416.90522	1.5502698	2	29	1	2	17	2	6418.455489	4	1	6417.389504	0.6837497
6418.455489	1.5506111	2	30	1	2	18	2	6420.0061	3	n/a	6418.940093	n/a
6420.0061	1.5500615	2	31	1	2	19	2	6421.556162	3	1	6420.490411	0.6841186
6421.556162	1.550264	2	32	1	2	20	1	6423.106426	3	1	6422.040762	0.5868362
6423.106426	1.5502132	2	33	1	2	21	2	6424.656639	3	1	6423.590775	0.5870506
6424.656639	1.5501077	2	34	1	2	22	1	6426.206747	2	1	6425.141156	0.9741665
6426.206747	1.5506837	2	35	1	2	23	1	6427.75743	2	n/a	6426.691177	n/a
6427.75743	1.5507016	2	36	1	2	24	2	6429.308132	2	n/a	6428.242097	n/a
6429.308132	1.5505579	2	37	1	2	25	1	6430.85869	2	1	6429.792631	0.6836027
6430.85869	1.5507137	2	38	1	2	26	2	6432.409404	2	1	6431.343128	0.9751822
6432.409404	1.5501483	2	39	1	2	27	1	6433.959552	2	0	6432.893729	0.974211
6433.959552	1.5500438	2	40	1	2	28	2	6435.509596	3	n/a	6434.444001	n/a
6435.509596	1.5504459	2	41	1	2	29	1	6437.060042	3	n/a	6435.994009	n/a
6437.060042	1.5501711	2	42	1	2	30	1	6438.610213	3	n/a	6437.544617	n/a
6438.610213	1.5501363	2	43	1	2	31	2	6440.160349	3	n/a	6439.094505	n/a
6440.160349	1.5502027	2	44	1	2	32	1	6441.710552	3	1	6440.644846	0.9733099
6441.710552	1.5505549	2	45	9	3	1	3	6443.261107	n/a	n/a	n/a	n/a
6443.261107	1.5501346	2	46	9	3	2	3	6444.811241	n/a	n/a	n/a	n/a
6444.811241	1.5500026	2	47	9	3	3	3	6446.361244	n/a	n/a	n/a	n/a
6446.361244	1.5504229	2	48	9	3	4	3	6447.911667	n/a	n/a	n/a	n/a
6447.911667	1.5501117	2	49	9	3	5	3	6449.461779	n/a	n/a	n/a	n/a
6449.461779	1.5503369	2	50	9	3	6	3	6451.012115	n/a	n/a	n/a	n/a
6451.012115	1.5502484	2	51	9	3	7	3	6452.562364	n/a	n/a	n/a	n/a
6452.562364	1.5502249	2	52	9	3	8	3	6454.112589	n/a	n/a	n/a	n/a
6454.112589	1.5501569	2	53	9	3	9	3	6455.662746	n/a	n/a	n/a	n/a
6455.662746	1.5503524	2	54	9	3	10	3	6457.213098	n/a	n/a	n/a	n/a
6457.213098	1.550019	2	55	9	3	11	3	6458.763117	n/a	n/a	n/a	n/a
6458.763117	1.550281	2	56	9	3	12	3	6460.313398	n/a	n/a	n/a	n/a
6460.313398	1.5502076	2	57	3	4	1	2	6461.863606	3	n/a	6460.797834	n/a
6461.863606	1.5510121	2	58	3	4	2	2	6463.414618	3	n/a	6462.348452	n/a
6463.414618	1.5499979	2	59	3	4	3	1	6464.964616	3	n/a	6463.899044	n/a
6464.964616	1.5501525	2	60	3	4	4	2	6466.514768	3	n/a	6465.449155	n/a
6466.514768	1.5505248	2	61	3	4	5	1	6468.065293	3	n/a	6466.999404	n/a
6468.065293	1.550449	2	62	3	4	6	2	6469.615742	3	0	6468.549846	0.39306
6469.615742	1.5501003	2	63	3	4	7	2	6471.165842	4	1	6470.10002	0.7811725
6471.165842	1.5505327	2	64	3	4	8	2	6472.716375	4	1	6471.650475	0.9752463
6472.716375	1.5505783	2	65	3	4	9	1	6474.266953	4	n/a	6473.201313	n/a
6474.266953	1.550465	2	66	3	4	10	2	6475.817418	4	0	6474.751525	0.1027108
6475.817418	1.5502911	2	67	3	4	11	2	6477.367709	5	1	6476.301847	0.4895756
6477.367709	1.5503544	2	68	3	4	12	2	6478.918064	5	n/a	6477.852179	n/a
6478.918064	1.5502645	2	69	3	4	13	2	6480.468328	5	1	6479.402699	0.4902706
6480.468328	1.5498924	2	70	3	4	14	2	6482.018221	5	1	6480.952621	0.5864367
6482.018221	1.5509919	2	71	3	4	15	2	6483.569212	4	1	6482.503005	0.4897883
6483.569212	1.5501692	2	72	3	4	16	1	6485.119382	4	1	6484.053265	0.586813
6485.119382	1.5502031	2	73	3	4	17	2	6486.669585	4	1	6485.603923	0.3932895
6486.669585	1.5501604	2	74	3	4	18	2	6488.219745	3	1	6487.153974	0.4899781
6488.219745	1.5505038	2	75	3	4	19	2	6489.770249	3	1	6488.704475	0.4901698
6489.770249	1.5501093	2	76	3	4	20	2	6491.320358	3	1	6490.254734	0.4897617
6491.320358	1.5502627	2	77	3	4	21	1	6492.870621	2	0	6491.804871	0.5873691
6492.870621	1.550177	2	78	3	4	22	1	6494.420798	3	1	6493.354995	0.5865405
6494.420798	1.5504341	2	79	3	4	23	2	6495.971232	3	1	6494.905397	0.6845489
6495.971232	1.5502054	2	80	3	4	24	1	6497.521437	3	1	6496.455534	0.7801917
6497.521437	1.5501366	2	81	3	4	25	2	6499.071574	2	0	6498.005928	0.5865839
6499.071574	1.5501925	2	82	3	4	26	2	6500.621767	3	1	6499.556134	0.5867173
6500.621767	1.5502183	2	83	3	4	27	2	6502.171985	3	0	6501.106339	0.586815
6502.171985	1.5501974	2	84	3	4	28	2	6503.722182	4	1	6502.656404	0.5861616
6503.722182	1.5502533	2	85	3	4	29	2	6505.272436	4	1	6504.206831	0.6838277
6505.272436	1.5502885	2	86	3	4	30	2	6506.822724	4	1	6505.756959	0.7798102
6506.822724	1.5502034	2	87	3	4	31	2	6508.372927	3	1	6507.307103	0.7804354
6508.372927	1.5500924	2	88	3	4	32	2	6509.92302	3	0	6508.857349	0.8766093
6509.92302	1.5502464	2	89	9	5	1	3	6511.473266	n/a	n/a	n/a	n/a
6511.473266	1.5504542	2	90	9	5	2	3	6513.023721	n/a	n/a	n/a	n/a
6513.023721	1.5501241	2	91	9	5	3	3	6514.573845	n/a	n/a	n/a	n/a
6514.573845	1.5501429	2	92	9	5	4	3	6516.123988	n/a	n/a	n/a	n/a
6516.123988	1.5501433	2	93	9	5	5	3	6517.674131	n/a	n/a	n/a	n/a
6517.674131	1.5506689	2	94	9	5	6	3	6519.2248	n/a	n/a	n/a	n/a
6519.2248	1.5516823	2	95	9	5	7	3	6520.776482	n/a	n/a	n/a	n/a
6520.776482	1.5500114	2	96	9	5	8	3	6522.326493	n/a	n/a	n/a	n/a
6522.326493	1.5507549	2	97	9	5	9	3	6523.877248	n/a	n/a	n/a	n/a
6523.877248	1.550438	2	98	9	5	10	3	6525.427686	n/a	n/a	n/a	n/a
6525.427686	1.5506801	2	99	9	5	11	3	6526.978366	n/a	n/a	n/a	n/a
6526.978366	1.5502218	2	100	9	5	12	3	6528.528588	n/a	n/a	n/a	n/a
6528.528588	1.5505022	2	101	5	6	1	1	6530.07909	4	n/a	6529.013102	n/a
6530.07909	1.5505369	2	102	5	6	2	1	6531.629627	4	n/a	6530.563458	n/a
6531.629627	1.5503592	2	103	5	6	3	1	6533.179987	4	0	6532.114152	n/a
6533.179987	1.5501041	2	104	5	6	4	2	6534.730091	5	1	6533.66433	n/a
6534.730091	1.5505501	2	105	5	6	5	2	6536.280641	5	1	6535.214674	0.0050961
6536.280641	1.5501145	2	106	5	6	6	1	6537.830755	5	n/a	6536.765111	n/a
6537.830755	1.5502934	2	107	5	6	7	1	6539.381049	5	1	6538.315394	0.5864849
6539.381049	1.5501707	2	108	5	6	8	1	6540.931219	4	1	6539.865756	0.4895214
6540.931219	1.5503366	2	109	5	6	9	1	6542.481556	4	1	6541.415828	0.3930089
6542.481556	1.5507865	2	110	5	6	10	2	6544.032342	4	1	6542.96592	0.6834515
6544.032342	1.550328	2	111	5	6	11	2	6545.58267	3	1	6544.516822	0.4900586
6545.58267	1.5505759	2	112	5	6	12	2	6547.133246	3	0	6546.067364	0.4900465
6547.133246	1.5502085	2	113	5	6	13	1	6548.683455	4	0	6547.617686	0.3929852
6548.683455	1.5502412	2	114	5	6	14	2	6550.233696	5	0	6549.16786	0.4902205
6550.233696	1.5505986	2	115	5	6	15	1	6551.784295	6	1	6550.71824	0.3938643
6551.784295	1.5506557	2	116	5	6	16	1	6553.33495	6	1	6552.269034	0.4897264
6553.33495	1.5502257	2	117	5	6	17	2	6554.885176	6	1	6553.819355	0.5870169
6554.885176	1.5499527	2	118	5	6	18	2	6556.435129	5	1	6555.369542	0.5865038
6556.435129	1.5500789	2	119	5	6	19	1	6557.985208	5	0	6556.919597	0.3927725
6557.985208	1.5505643	2	120	5	6	20	1	6559.535772	6	1	6558.469965	0.4901619
6559.535772	1.550473	2	121	5	6	21	1	6561.086245	6	1	6560.020248	0.5865299
6561.086245	1.5502335	2	122	5	6	22	1	6562.636478	6	1	6561.570626	0.5873481
6562.636478	1.5499441	2	123	5	6	23	2	6564.186422	5	1	6563.120823	0.5867402
6564.186422	1.5500343	2	124	5	6	24	2	6565.736457	5	1	6564.670771	0.5869711
6565.736457	1.5503653	2	125	5	6	25	1	6567.286822	5	1	6566.220819	0.6830997
6567.286822	1.5502043	2	126	5	6	26	2	6568.837026	4	1	6567.771192	0.4901509
6568.837026	1.5505538	2	127	5	6	27	1	6570.38758	4	1	6569.321518	0.5868761
6570.38758	1.5500467	2	128	5	6	28	1	6571.937627	4	1	6570.871915	0.5871843
6571.937627	1.5502718	2	129	5	6	29	2	6573.487899	3	1	6572.422166	0.5859544
6573.487899	1.5506167	2	130	5	6	30	1	6575.038515	3	0	6573.972255	0.7801289
6575.038515	1.5503749	2	131	5	6	31	2	6576.58889	4	1	6575.523012	0.7800409
6576.58889	1.5502137	2	132	5	6	32	1	6578.139104	4	1	6577.073186	0.8769489
6578.139104	1.5505616	2	133	9	7	1	3	6579.689666	n/a	n/a	n/a	n/a
6579.689666	1.5507545	2	134	9	7	2	3	6581.24042	n/a	n/a	n/a	n/a
6581.24042	1.550154	2	135	9	7	3	3	6582.790574	n/a	n/a	n/a	n/a
6582.790574	1.5505733	2	136	9	7	4	3	6584.341147	n/a	n/a	n/a	n/a
6584.341147	1.5502066	2	137	9	7	5	3	6585.891354	n/a	n/a	n/a	n/a
6585.891354	1.550268	2	138	9	7	6	3	6587.441622	n/a	n/a	n/a	n/a
6587.441622	1.5500796	2	139	9	7	7	3	6588.991702	n/a	n/a	n/a	n/a
6588.991702	1.5501575	2	140	9	7	8	3	6590.541859	n/a	n/a	n/a	n/a
6590.541859	1.5511399	2	141	9	7	9	3	6592.092999	n/a	n/a	n/a	n/a
6592.092999	1.5505858	2	142	9	7	10	3	6593.643585	n/a	n/a	n/a	n/a
6593.643585	1.5509526	2	143	9	7	11	3	6595.194537	n/a	n/a	n/a	n/a
6595.194537	1.5508687	2	144	9	7	12	3	6596.745406	n/a	n/a	n/a	n/a
6596.745406	1.5503233	2	145	7	8	1	2	6598.295729	4	n/a	6597.229892	n/a
6598.295729	1.5508293	2	146	7	8	2	2	6599.846559	4	1	6598.780484	0.590075
6599.846559	1.5505752	2	147	7	8	3	2	6601.397134	3	1	6600.330959	0.4007771
6601.397134	1.5505743	2	148	7	8	4	2	6602.947708	3	1	6601.881725	0.493463
6602.947708	1.5505218	2	149	7	8	5	2	6604.49823	3	1	6603.432077	0.5908229
6604.49823	1.5508198	2	150	7	8	6	2	6606.04905	2	1	6604.983202	0.5906159
6606.04905	1.5510584	2	151	7	8	7	2	6607.600108	2	1	6606.533899	0.5948563
6607.600108	1.5508059	2	152	7	8	8	2	6609.150914	2	0	6608.084752	0.500259
6609.150914	1.5505946	2	153	7	8	9	1	6610.701509	3	1	6609.635287	0.4933171
6610.701509	1.5503716	2	154	7	8	10	2	6612.25188	3	1	6611.185991	0.4940378
6612.25188	1.5505874	2	155	7	8	11	2	6613.802468	3	1	6612.736429	0.6884654
6613.802468	1.5508448	2	156	7	8	12	2	6615.353313	2	1	6614.28705	0.4943124
6615.353313	1.5506782	2	157	7	8	13	1	6616.903991	2	0	6615.837923	0.5941907
6616.903991	1.5508204	2	158	7	8	14	1	6618.454811	3	1	6617.388816	0.6876028
6618.454811	1.5505312	2	159	7	8	15	2	6620.005342	3	1	6618.939499	0.5902601
6620.005342	1.5512463	2	160	7	8	16	1	6621.556589	3	1	6620.490123	0.5950196
6621.556589	1.5508226	2	161	7	8	17	2	6623.107411	2	0	6622.041217	0.5911124
6623.107411	1.5507753	2	162	7	8	18	1	6624.658186	3	1	6623.592087	0.4941418
6624.658186	1.5508079	2	163	7	8	19	2	6626.208994	3	n/a	6625.142597	n/a
6626.208994	1.5506749	2	164	7	8	20	1	6627.759669	3	0	6626.6936	0.498388
6627.759669	1.5510809	2	165	7	8	21	1	6629.31075	4	1	6628.244153	0.592104
6629.31075	1.5511052	2	166	7	8	22	2	6630.861855	4	1	6629.795802	0.4936573
6630.861855	1.5502234	2	167	7	8	23	1	6632.412079	4	1	6631.346282	0.6878436
6632.412079	1.5502944	2	168	7	8	24	2	6633.962373	3	1	6632.896516	0.7847837
6633.962373	1.5507101	2	169	7	8	25	1	6635.513083	3	1	6634.44682	0.3974106
6635.513083	1.5505967	2	170	7	8	26	2	6637.06368	3	0	6635.997726	0.5908559
6637.06368	1.5502734	2	171	7	8	27	2	6638.613953	4	0	6637.548091	0.5911759
6638.613953	1.5504443	2	172	7	8	28	2	6640.164398	5	1	6639.098535	0.9779103
6640.164398	1.5507551	2	173	7	8	29	1	6641.715153	5	n/a	6640.648926	n/a
6641.715153	1.5506023	2	174	7	8	30	1	6643.265755	5	n/a	6642.199851	n/a
6643.265755	1.5503763	2	175	7	8	31	2	6644.816131	5	n/a	6643.750116	n/a
6644.816131	1.550951	2	176	7	8	32	1	6646.367082	5	n/a	6645.300862	n/a
6646.367082	1.5506053	2	177	9	9	1	3	6647.917688	n/a	n/a	n/a	n/a
6647.917688	1.5505423	2	178	9	9	2	3	6649.46823	n/a	n/a	n/a	n/a
6649.46823	1.5505947	2	179	9	9	3	3	6651.018825	n/a	n/a	n/a	n/a
6651.018825	1.5505353	2	180	9	9	4	3	6652.56936	n/a	n/a	n/a	n/a
6652.56936	1.5507388	2	181	9	9	5	3	6654.120099	n/a	n/a	n/a	n/a
6654.120099	1.5511706	2	182	9	9	6	3	6655.671269	n/a	n/a	n/a	n/a
6655.671269	1.5510176	2	183	9	9	7	3	6657.222287	n/a	n/a	n/a	n/a
6657.222287	1.5502014	2	184	9	9	8	3	6658.772488	n/a	n/a	n/a	n/a
6658.772488	1.5505633	2	185	9	9	9	3	6660.323052	n/a	n/a	n/a	n/a
6660.323052	1.5507149	2	186	9	9	10	3	6661.873767	n/a	n/a	n/a	n/a
6661.873767	1.5506873	2	187	9	9	11	3	6663.424454	n/a	n/a	n/a	n/a
6663.424454	1.5505931	2	188	9	9	12	3	6664.975047	n/a	n/a	n/a	n/a
