onset	duration	run_number	trial_number	spatial_frequency	michelson_contrast	probe_orientation	response_correctness	probe_time	reaction_time
84192.09952	1.600138563	1	1	7	13	3	n/a	84192.4995	n/a
84193.69963	1.600254992	1	2	7	13	3	n/a	84194.09973	n/a
84195.29993	1.600192893	1	3	7	13	3	n/a	84195.69997	n/a
84196.90019	1.600214102	1	4	7	13	3	n/a	84197.30017	n/a
84198.5004	1.60023369	1	5	6	12	2	0	84198.90046	1.104127152
84200.10066	1.600229818	1	6	6	11	2	1	84200.5007	0.6036850148
84201.70092	1.600272181	1	7	6	10	1	1	84202.101	0.2029593905
84203.30121	1.600249478	1	8	6	9	1	0	84203.70128	0.101323147
84204.90149	1.600118389	1	9	6	8	1	n/a	84205.30154	n/a
84206.50171	1.600137124	1	10	6	7	1	0	84206.90169	0.003470881202
84208.10195	1.600123213	1	11	6	6	2	n/a	84208.50193	n/a
84209.70218	1.600149539	1	12	6	5	1	n/a	84210.10217	n/a
84211.30236	1.600193958	1	13	6	4	1	1	84211.70243	0.004772808112
84212.90258	1.600242402	1	14	6	3	1	0	84213.30252	0.3037109649
84214.50284	1.600218751	1	15	6	2	2	0	84214.90285	0.4035364954
84216.10307	1.600235815	1	16	6	1	2	1	84216.50315	0.5058397955
84217.70332	1.600253555	1	17	2	1	2	0	84218.10341	0.4032977778
84219.30356	1.60034402	1	18	2	2	2	1	84219.70364	0.4031315316
84220.90391	1.600121475	1	19	2	3	1	1	84221.30388	0.3034557022
84222.50416	1.600137767	1	20	2	4	1	0	84222.90414	0.2028480552
84224.10429	1.600252597	1	21	2	5	1	1	84224.50437	0.3029094879
84225.70449	1.600265664	1	22	2	6	1	0	84226.10462	0.3026370081
84227.30481	1.60019502	1	23	2	7	1	1	84227.70486	0.4034229014
84228.90504	1.600272577	1	24	2	8	1	0	84229.3051	0.3029681661
84230.50532	1.600271405	1	25	2	9	2	1	84230.9054	0.6018918452
84232.10562	1.600091438	1	26	2	10	2	1	84232.50568	0.6012519882
84233.70587	1.600130914	1	27	2	11	1	1	84234.10582	1.102740007
84235.306	1.600214161	1	28	2	12	2	1	84235.70606	0.7032666913
84236.90617	1.600300686	1	29	4	12	1	0	84237.30632	0.6028638653
84238.50642	1.600313482	1	30	4	11	1	1	84238.90655	0.4028456485
84240.10671	1.600236296	1	31	4	10	2	1	84240.5068	0.3025738341
84241.70694	1.600284997	1	32	4	9	2	0	84242.10701	0.2026891105
84243.30723	1.600268701	1	33	4	8	1	0	84243.7073	0.002663582083
84244.90751	1.600280067	1	34	4	7	1	1	84245.30753	0.3014517005
84246.5078	1.600243342	1	35	4	6	1	0	84246.9078	0.3010180905
84248.10806	1.600224317	1	36	4	5	1	1	84248.50812	0.4010221218
84249.7083	1.600109432	1	37	4	4	1	0	84250.10836	0.2033677184
84251.30855	1.600080015	1	38	4	3	2	0	84251.70861	0.1030603184
84252.90865	1.600258779	1	39	4	2	1	0	84253.30866	0.00397878942
84254.50892	1.600293559	1	40	4	1	2	1	84254.90909	0.3025164175
84256.10918	1.600212619	1	41	1	1	1	1	84256.50925	0.2026121947
84257.7094	1.600264216	1	42	1	2	2	1	84258.10945	0.1019841156
84259.30967	1.600232366	1	43	1	3	2	0	84259.70973	0.2029509258
84260.90989	1.600342337	1	44	1	4	2	1	84261.31005	0.2020364252
84262.51014	1.600251388	1	45	1	5	1	1	84262.91017	0.3027045795
84264.11038	1.600225044	1	46	1	6	2	1	84264.51053	0.2032723151
84265.71062	1.600257471	1	47	1	7	1	1	84266.11072	0.2024059879
84267.3109	1.600275568	1	48	1	8	1	0	84267.71093	0.1026051283
84268.91112	1.600247958	1	49	1	9	1	0	84269.31117	0.3026025148
84270.51135	1.600240603	1	50	1	10	1	0	84270.91143	1.002315899
84272.11163	1.600236351	1	51	1	11	2	1	84272.51168	0.7025593316
84273.71188	1.600212224	1	52	1	12	2	1	84274.11202	0.5019187319
84275.3121	1.600235046	1	53	2	12	2	1	84275.71216	0.502524435
84276.91233	1.600326906	1	54	2	11	2	0	84277.3124	0.6029817812
84278.51257	1.600243746	1	55	2	10	1	0	84278.91263	0.4025157316
84280.11282	1.600236719	1	56	2	9	1	0	84280.51291	0.10216533
84281.71313	1.600133049	1	57	2	8	2	0	84282.11314	0.5025765123
84283.31333	1.600219223	1	58	2	7	1	0	84283.71337	0.3025266922
84284.91355	1.600100473	1	59	2	6	1	1	84285.31359	0.3024651871
84286.51382	1.600220413	1	60	2	5	1	0	84286.91388	0.202057293
84288.11409	1.600280124	1	61	2	4	2	0	84288.51417	0.2012468562
84289.71439	1.600225482	1	62	2	3	2	1	84290.11445	0.1009838218
84291.31462	1.600128001	1	63	2	2	1	1	84291.71468	0.2027317857
84292.91476	1.600272584	1	64	2	1	2	1	84293.31481	0.1028157677
84294.51509	1.600121034	1	65	5	1	1	1	84294.91507	0.1028218653
84296.11522	1.600365228	1	66	5	2	2	1	84296.51532	0.002909601375
84297.71551	1.600171635	1	67	5	3	1	1	84298.11555	0.1025826787
84299.31577	1.600223593	1	68	5	4	1	0	84299.71582	0.1019453787
84300.91598	1.600334063	1	69	5	5	1	1	84301.31603	0.1030048249
84302.51631	1.600130342	1	70	5	6	1	0	84302.9163	0.1025146325
84304.11646	1.600260702	1	71	5	7	2	0	84304.51653	0.3027499283
84305.71672	1.600244393	1	72	5	8	2	1	84306.11679	0.1027670367
84307.31706	1.600138487	1	73	5	9	2	0	84307.71702	0.102642372
84308.91722	1.600204767	1	74	5	10	2	1	84309.31727	0.3024469686
84310.51748	1.60021844	1	75	5	11	1	1	84310.91754	0.202669835
84312.11771	1.600214928	1	76	5	12	1	0	84312.51781	0.3015152293
84313.71793	1.60025504	1	77	3	12	2	1	84314.11801	0.3027009417
84315.3182	1.60023679	1	78	3	11	1	1	84315.71825	0.6025631249
84316.91842	1.600236657	1	79	3	10	2	1	84317.31855	0.3020517242
84318.51868	1.600227348	1	80	3	9	2	0	84318.91873	0.3009339854
84320.1189	1.600286801	1	81	3	8	1	0	84320.51898	0.3020893527
84321.71921	1.600251034	1	82	3	7	2	0	84322.11927	0.2016243057
84323.31948	1.600252046	1	83	3	6	2	1	84323.71955	0.1008279386
84324.91973	1.600133864	1	84	3	5	2	0	84325.31975	0.2010769333
84326.51987	1.600225993	1	85	3	4	1	0	84326.91991	0.3030664635
84328.12013	1.600257204	1	86	3	3	2	0	84328.5202	0.2010630803
84329.7204	1.600270964	1	87	3	2	2	1	84330.12048	0.2020786973
84331.32068	1.600267058	1	88	3	1	2	0	84331.72076	0.1013356604
84332.92096	1.600122308	1	89	6	1	2	1	84333.32101	0.1009788924
84334.52112	1.600151886	1	90	6	2	1	1	84334.92115	0.1022747711
84336.12121	1.60044076	1	91	6	3	2	1	84336.5215	0.3021919126
84337.72154	1.600378542	1	92	6	4	1	1	84338.12172	0.1011715494
84339.32194	1.600223976	1	93	6	5	2	1	84339.72198	0.1010278689
84340.92204	1.600257774	1	94	6	6	2	0	84341.32213	0.2024982417
84342.52231	1.600095773	1	95	6	7	2	1	84342.92236	0.1029873409
84344.12242	1.600328191	1	96	6	8	2	0	84344.52263	0.2025505543
84345.72278	1.600248401	1	97	6	9	1	0	84346.12287	0.3024464283
84347.32304	1.600334263	1	98	6	10	2	0	84347.7231	0.3010837653
84348.92329	1.600226281	1	99	6	11	1	0	84349.32334	0.202858361
84350.52354	1.600332258	1	100	6	12	1	0	84350.92361	0.3025169031
84352.12376	1.600262064	1	101	5	12	2	0	84352.52385	0.202656635
84353.72407	1.600244257	1	102	5	11	1	0	84354.12411	0.2020368779
84355.32434	1.600252118	1	103	5	10	1	1	84355.72442	0.3011747108
84356.92461	1.600129807	1	104	5	9	2	1	84357.32468	0.3031122487
84358.52474	1.600243839	1	105	5	8	2	0	84358.92483	0.6025872409
84360.12509	1.600113262	1	106	5	7	1	0	84360.525	0.3027170214
84361.72535	1.600123524	1	107	5	6	1	1	84362.12527	0.2028520232
84363.32548	1.600214421	1	108	5	5	2	1	84363.72554	0.2027398384
84364.92573	1.600227818	1	109	5	4	1	1	84365.3258	0.3027138897
84366.52597	1.600202415	1	110	5	3	1	0	84366.92602	0.1026264182
84368.12631	1.600124082	1	111	5	2	2	0	84368.52629	0.2027469728
84369.72654	1.600171874	1	112	5	1	1	0	84370.12652	0.3025523384
84371.32673	1.600292861	1	113	3	1	2	0	84371.7268	0.2019325712
84372.92697	1.60031315	1	114	3	2	2	1	84373.32708	0.2010585243
84374.52728	1.600194717	1	115	3	3	1	1	84374.92736	0.2010139184
84376.12745	1.600310782	1	116	3	4	1	0	84376.5275	0.2026076106
84377.72762	1.600264354	1	117	3	5	2	0	84378.12772	0.2029646442
84379.32791	1.600222834	1	118	3	6	2	1	84379.72797	0.2027077039
84380.92816	1.600231673	1	119	3	7	1	1	84381.32823	0.1029043821
84382.52841	1.600281623	1	120	3	8	2	1	84382.92847	0.3027864989
84384.12864	1.600217735	1	121	3	9	2	0	84384.52881	0.200473942
84385.72896	1.60014874	1	122	3	10	1	0	84386.12895	0.4023633216
84387.32914	1.600321637	1	123	3	11	1	1	84387.7292	0.4024730081
84388.92944	1.600168479	1	124	3	12	2	1	84389.32944	0.3026104148
84390.52963	1.600199776	1	125	1	12	2	0	84390.92968	0.9011138879
84392.1299	1.600207997	1	126	1	11	1	1	84392.52993	0.6011364014
84393.73017	1.600236372	1	127	1	10	1	1	84394.13021	0.701513204
84395.33043	1.600254094	1	128	1	9	1	0	84395.7305	0.6008220335
84396.9307	1.60023015	1	129	1	8	1	1	84397.33077	0.5010020285
84398.53095	1.600199102	1	130	1	7	1	0	84398.93088	0.3028598207
84400.13111	1.600163311	1	131	1	6	2	0	84400.53114	0.2029125644
84401.73136	1.600184347	1	132	1	5	1	0	84402.13139	0.4026363711
84403.33156	1.600245266	1	133	1	4	2	0	84403.73162	0.5028164451
84404.93185	1.600199029	1	134	1	3	2	1	84405.33188	0.4029073552
84406.53206	1.600295758	1	135	1	2	1	1	84406.93213	0.6025562998
84408.13233	1.600172908	1	136	1	1	1	0	84408.53238	0.6026756787
84409.73261	1.600174746	1	137	4	1	2	0	84410.13262	0.4019317518
84411.33278	1.600317943	1	138	4	2	1	0	84411.73295	0.4024261184
84412.93302	1.600253534	1	139	4	3	1	1	84413.33311	0.4026287081
84414.53328	1.600273028	1	140	4	4	1	0	84414.93337	0.2020187964
84416.13352	1.600330984	1	141	4	5	2	0	84416.53366	0.1015475326
84417.73382	1.600280163	1	142	4	6	2	1	84418.13393	0.5012253184
84419.33399	1.600216897	1	143	4	7	1	1	84419.73406	0.3025928879
84420.9343	1.60017043	1	144	4	8	2	1	84421.33432	0.3026643442
84422.53449	1.600332526	1	145	4	9	1	1	84422.93457	0.2029111778
84424.1347	1.600235864	1	146	4	10	1	0	84424.53479	0.3024609753
84425.73497	1.600249129	1	147	4	11	1	1	84426.13509	0.3025663258
84427.33523	1.600301442	1	148	4	12	2	0	84427.73531	0.402855256
84428.93555	1.600150862	1	149	7	13	3	n/a	84429.33553	n/a
84430.53571	1.600317656	1	150	7	13	3	n/a	84430.93577	n/a
84432.136	1.600214513	1	151	7	13	3	n/a	84432.53603	n/a
84433.73618	1.600239305	1	152	7	13	3	n/a	84434.13626	n/a
