onset	duration	run_number	trial_number	spatial_frequency	michelson_contrast	probe_orientation	response_correctness	probe_time	reaction_time
86512.20539	1.600116464	5	1	7	13	3	n/a	86512.60535	n/a
86513.80554	1.600230778	5	2	7	13	3	n/a	86514.20558	n/a
86515.40576	1.600246934	5	3	7	13	3	n/a	86515.80584	n/a
86517.00603	1.600209885	5	4	7	13	3	n/a	86517.40608	n/a
86518.60628	1.600237161	5	5	6	12	2	n/a	86519.00635	n/a
86520.20654	1.600211015	5	6	6	11	1	0	86520.60659	1.003609505
86521.80677	1.600225946	5	7	6	10	1	1	86522.20683	0.6032343045
86523.40701	1.600239218	5	8	6	9	1	0	86523.80717	0.3028796256
86525.00724	1.600255815	5	9	6	8	1	1	86525.40733	0.3032331917
86526.60751	1.600323948	5	10	6	7	2	1	86527.00757	0.1024167229
86528.20779	1.600266639	5	11	6	6	1	0	86528.60787	0.1022656838
86529.80809	1.600242449	5	12	6	5	2	0	86530.20815	0.3032854594
86531.40834	1.600116218	5	13	6	4	1	0	86531.80841	0.3038675695
86533.00847	1.600225929	5	14	6	3	2	0	86533.40854	0.303936909
86534.60871	1.600224554	5	15	6	2	1	0	86535.00878	0.3033113981
86536.20896	1.600230513	5	16	6	1	2	0	86536.60901	0.2042747015
86537.80921	1.600246236	5	17	2	1	2	1	86538.20928	0.2035171688
86539.40945	1.600254862	5	18	2	2	2	0	86539.80953	0.2023198421
86541.00982	1.600119921	5	19	2	3	1	0	86541.40978	0.2021859147
86542.60996	1.600213378	5	20	2	4	1	1	86543.01	0.2029980211
86544.21019	1.600248692	5	21	2	5	1	1	86544.61026	0.6025895192
86545.81043	1.600249631	5	22	2	6	2	1	86546.2105	0.5012666083
86547.4107	1.600231879	5	23	2	7	1	1	86547.81075	0.4026616357
86549.01095	1.600250059	5	24	2	8	2	1	86549.41099	0.6026009293
86550.6112	1.600286956	5	25	2	9	2	1	86551.01134	0.6019214714
86552.21148	1.600280329	5	26	2	10	2	1	86552.61158	0.5006690346
86553.81177	1.600242971	5	27	2	11	1	1	86554.21184	0.301065209
86555.4119	1.600229415	5	28	2	12	1	1	86555.81196	0.3026490797
86557.01216	1.6002245	5	29	4	12	1	1	86557.41222	0.5027024402
86558.6124	1.600245217	5	30	4	11	2	1	86559.01247	0.502612688
86560.21265	1.600241592	5	31	4	10	1	1	86560.61269	0.4027339861
86561.8129	1.600232446	5	32	4	9	2	1	86562.21296	0.5019371402
86563.41314	1.600229171	5	33	4	8	2	0	86563.8132	0.5029411229
86565.01339	1.600236824	5	34	4	7	2	1	86565.41345	0.502979056
86566.61364	1.600224158	5	35	4	6	1	1	86567.01373	0.6026840241
86568.21397	1.600158135	5	36	4	5	1	0	86568.61393	0.4022106109
86569.81412	1.600256978	5	37	4	4	1	1	86570.21417	0.2028092109
86571.41437	1.600218734	5	38	4	3	2	1	86571.81443	0.002665950378
86573.01462	1.600233017	5	39	4	2	1	1	86573.41468	0.1024981357
86574.61485	1.600251033	5	40	4	1	2	1	86575.01493	0.2024138293
86576.2151	1.600288018	5	41	1	1	1	1	86576.61524	0.3023602812
86577.81541	1.600264779	5	42	1	2	1	0	86578.21549	0.2012734902
86579.4157	1.600233021	5	43	1	3	1	1	86579.81577	0.200950453
86581.01582	1.600262262	5	44	1	4	1	0	86581.4159	0.202605909
86582.6161	1.600202871	5	45	1	5	2	0	86583.01615	0.4030045816
86584.21632	1.600238704	5	46	1	6	2	1	86584.61638	0.6021704045
86585.81657	1.600218012	5	47	1	7	2	1	86586.21663	0.702797853
86587.41681	1.600244092	5	48	1	8	1	1	86587.81688	0.6032401861
86589.01706	1.600240517	5	49	1	9	2	1	86589.41713	0.502849621
86590.61731	1.600272379	5	50	1	10	2	1	86591.01738	0.5020082414
86592.2176	1.600266433	5	51	1	11	1	1	86592.61768	0.5015559398
86593.8179	1.600254239	5	52	1	12	2	0	86594.21796	0.5010054173
86595.41815	1.600073076	5	53	2	12	1	1	86595.81822	0.4010020696
86597.01824	1.600244794	5	54	2	11	1	1	86597.41846	0.4033135154
86598.61864	1.600081757	5	55	2	10	1	1	86599.01856	0.4032516786
86600.21874	1.600268759	5	56	2	9	1	1	86600.61882	0.5026455805
86601.81901	1.600261194	5	57	2	8	1	1	86602.21906	0.5025021741
86603.41927	1.600238673	5	58	2	7	1	1	86603.81932	0.4021060981
86605.01952	1.600209781	5	59	2	6	1	1	86605.41958	0.5029838835
86606.61978	1.600208562	5	60	2	5	1	1	86607.01981	0.5026935357
86608.22002	1.600232077	5	61	2	4	2	1	86608.62008	0.6026441733
86609.82024	1.60026878	5	62	2	3	2	1	86610.22032	0.7028720064
86611.42051	1.600220923	5	63	2	2	1	1	86611.82058	0.402558721
86613.02075	1.600216706	5	64	2	1	1	0	86613.4208	0.302764444
86614.62099	1.600238186	5	65	5	1	1	1	86615.02104	0.2027078045
86616.22124	1.600239982	5	66	5	2	2	1	86616.6213	0.2024525045
86617.82146	1.600264399	5	67	5	3	1	1	86618.22153	0.3022736192
86619.4217	1.600259709	5	68	5	4	1	0	86619.8218	0.1026211147
86621.02197	1.600235471	5	69	5	5	2	0	86621.42204	0.2023715211
86622.62223	1.600228861	5	70	5	6	1	0	86623.02229	0.2025557891
86624.22247	1.600233501	5	71	5	7	1	1	86624.62252	0.2026267376
86625.82271	1.600240667	5	72	5	8	1	0	86626.22277	0.202497344
86627.42296	1.600229881	5	73	5	9	1	1	86627.82301	0.5025895523
86629.02321	1.600211902	5	74	5	10	1	1	86629.42326	0.5027407147
86630.62345	1.600233162	5	75	5	11	2	1	86631.0235	0.502660621
86632.22369	1.600233273	5	76	5	12	2	1	86632.62376	0.5023762771
86633.82393	1.600253482	5	77	3	12	2	1	86634.22399	0.4025868752
86635.4242	1.600270916	5	78	3	11	1	1	86635.82428	0.4017355763
86637.02448	1.60028368	5	79	3	10	1	1	86637.42456	0.5012188684
86638.62477	1.600242733	5	80	3	9	1	1	86639.02485	0.5010539741
86640.22488	1.600259101	5	81	3	8	2	1	86640.62497	0.502610188
86641.82514	1.600250796	5	82	3	7	1	1	86642.22521	0.4025499026
86643.4254	1.600233571	5	83	3	6	1	0	86643.82546	0.4009809147
86645.02564	1.600241906	5	84	3	5	1	1	86645.4257	0.4028357714
86646.62591	1.600219113	5	85	3	4	2	0	86647.02595	0.5028192376
86648.22615	1.600218433	5	86	3	3	2	0	86648.62619	0.4026327504
86649.8264	1.600231375	5	87	3	2	2	1	86650.22646	0.3026645293
86651.42663	1.600257944	5	88	3	1	1	1	86651.82669	0.2026604485
86653.02688	1.600234364	5	89	6	1	2	1	86653.42695	0.3025245835
86654.62712	1.600243005	5	90	6	2	1	1	86655.02717	0.3026399274
86656.22736	1.600226469	5	91	6	3	2	1	86656.62742	0.102245344
86657.82762	1.600232715	5	92	6	4	1	1	86658.22773	0.002640706385
86659.42785	1.600247483	5	93	6	5	2	1	86659.82792	0.002622812783
86661.0281	1.600206829	5	94	6	6	1	1	86661.42827	0.1022790383
86662.62836	1.600229715	5	95	6	7	1	0	86663.02841	0.1025929357
86664.22859	1.600339976	5	96	6	8	2	0	86664.62865	0.002627258655
86665.82883	1.60024485	5	97	6	9	2	1	86666.2289	0.2025037045
86667.42908	1.600240077	5	98	6	10	1	1	86667.82915	0.1020310586
86669.02927	1.600296263	5	99	6	11	2	1	86669.42939	0.1025734917
86670.62959	1.600257889	5	100	6	12	2	0	86671.02974	0.3021750861
86672.22988	1.600277393	5	101	5	12	1	1	86672.62996	0.2013697812
86673.83017	1.600231819	5	102	5	11	1	1	86674.23024	0.5010213695
86675.43043	1.600093338	5	103	5	10	1	1	86675.83047	0.5010909568
86677.03055	1.600277162	5	104	5	9	1	1	86677.43062	0.5022692128
86678.63087	1.600224288	5	105	5	8	2	1	86679.0309	0.6009347361
86680.23113	1.600252497	5	106	5	7	2	1	86680.63119	0.6011081741
86681.8314	1.60012898	5	107	5	6	2	0	86682.23146	0.3010002008
86683.43156	1.60027771	5	108	5	5	2	1	86683.83164	0.3010914534
86685.03185	1.600269126	5	109	5	4	2	0	86685.43193	0.2014445143
86686.63213	1.600236246	5	110	5	3	1	1	86687.03219	0.201128888
86688.23238	1.600135642	5	111	5	2	2	1	86688.63232	0.100608665
86689.8325	1.600304341	5	112	5	1	2	0	86690.23257	0.1026316237
86691.43276	1.600242046	5	113	3	1	1	0	86691.83282	0.2025394026
86693.033	1.600233623	5	114	3	2	2	0	86693.43306	0.2028162797
86694.63326	1.600229983	5	115	3	3	2	1	86695.03331	0.202566944
86696.2335	1.600240017	5	116	3	4	2	0	86696.63357	0.1025811357
86697.83373	1.600245223	5	117	3	5	2	1	86698.23382	0.2025598835
86699.43398	1.600243221	5	118	3	6	2	1	86699.83406	0.5026327211
86701.03423	1.600259878	5	119	3	7	1	0	86701.43429	0.402737388
86702.63451	1.600276287	5	120	3	8	1	1	86703.03458	0.4018873406
86704.2348	1.60027052	5	121	3	9	1	1	86704.63487	0.5010433868
86705.83508	1.600106148	5	122	3	10	1	1	86706.23514	0.4028203319
86707.43522	1.600220318	5	123	3	11	2	1	86707.83527	0.5027928632
86709.03546	1.600216843	5	124	3	12	1	1	86709.43552	0.5016450714
86710.63569	1.600240138	5	125	1	12	1	0	86711.03577	0.2026642109
86712.23597	1.600222129	5	126	1	11	1	1	86712.63603	0.5025808192
86713.8362	1.600237269	5	127	1	10	1	1	86714.2363	0.5027686406
86715.43646	1.600215529	5	128	1	9	1	1	86715.83649	0.7028008192
86717.03668	1.600286592	5	129	1	8	1	1	86717.43675	0.5022814045
86718.63692	1.600272479	5	130	1	7	2	1	86719.03701	0.6024355376
86720.23722	1.600282679	5	131	1	6	1	1	86720.6373	0.5016989526
86721.8375	1.600262305	5	132	1	5	1	1	86722.23757	0.4010575447
86723.43778	1.60008936	5	133	1	4	2	1	86723.83783	0.4006841173
86725.0379	1.600225779	5	134	1	3	2	0	86725.43793	0.203254062
86726.63813	1.600251434	5	135	1	2	1	0	86727.03819	0.3025262053
86728.2384	1.600222315	5	136	1	1	1	1	86728.63847	0.2029330549
86729.83865	1.600239813	5	137	4	1	1	0	86730.2387	0.1026499733
86731.4389	1.60021795	5	138	4	2	1	1	86731.83896	0.002601121043
86733.03915	1.600231823	5	139	4	3	2	1	86733.43921	0.002187101883
86734.63938	1.600237839	5	140	4	4	1	1	86735.03945	0.2026588045
86736.23964	1.600223277	5	141	4	5	2	0	86736.6397	0.3024872478
86737.83988	1.600231778	5	142	4	6	2	0	86738.23994	0.3023467752
86739.44013	1.600241401	5	143	4	7	1	1	86739.84018	0.4024973173
86741.0404	1.600259116	5	144	4	8	1	0	86741.44047	0.3042542947
86742.64069	1.600275291	5	145	4	9	1	1	86743.04076	0.4010815244
86744.24096	1.600103689	5	146	4	10	1	1	86744.64102	0.5005937109
86745.84108	1.600230333	5	147	4	11	1	1	86746.24115	0.4028546319
86747.44133	1.600223967	5	148	4	12	2	1	86747.8414	0.502929009
86749.04159	1.600230171	5	149	7	13	3	n/a	86749.44165	n/a
86750.64183	1.600250927	5	150	7	13	3	n/a	86751.04189	n/a
86752.2421	1.600214362	5	151	7	13	3	n/a	86752.64213	n/a
86753.84234	1.600205997	5	152	7	13	3	n/a	86754.2424	n/a
