onset	duration	run_number	trial_number	bar_direction	bar_period	bar_step	stim_noise_ori	trial_offset	stim_stair_val	response_val	probe_time	reaction_time
14184.89288	1.5509656	2	1	9	1	1	3	14186.44385	n/a	n/a	n/a	n/a
14186.44385	1.5507211	2	2	9	1	2	3	14187.99457	n/a	n/a	n/a	n/a
14187.99457	1.5502969	2	3	9	1	3	3	14189.54486	n/a	n/a	n/a	n/a
14189.54486	1.5501124	2	4	9	1	4	3	14191.09498	n/a	n/a	n/a	n/a
14191.09498	1.5505724	2	5	9	1	5	3	14192.64555	n/a	n/a	n/a	n/a
14192.64555	1.5505326	2	6	9	1	6	3	14194.19608	n/a	n/a	n/a	n/a
14194.19608	1.5498952	2	7	9	1	7	3	14195.74598	n/a	n/a	n/a	n/a
14195.74598	1.5503493	2	8	9	1	8	3	14197.29633	n/a	n/a	n/a	n/a
14197.29633	1.5500764	2	9	9	1	9	3	14198.8464	n/a	n/a	n/a	n/a
14198.8464	1.5501662	2	10	9	1	10	3	14200.39657	n/a	n/a	n/a	n/a
14200.39657	1.5502896	2	11	9	1	11	3	14201.94686	n/a	n/a	n/a	n/a
14201.94686	1.5504117	2	12	9	1	12	3	14203.49727	n/a	n/a	n/a	n/a
14203.49727	1.5503948	2	13	1	2	1	2	14205.04766	4	1	14203.98154	0.5870646
14205.04766	1.550881	2	14	1	2	2	2	14206.59855	4	0	14205.53246	0.0055259
14206.59855	1.5499334	2	15	1	2	3	1	14208.14848	5	0	14207.08285	0.5862611
14208.14848	1.5500962	2	16	1	2	4	2	14209.69858	6	1	14208.63286	0.586562
14209.69858	1.5502418	2	17	1	2	5	1	14211.24882	6	1	14210.18294	0.1987935
14211.24882	1.5503954	2	18	1	2	6	2	14212.79921	6	1	14211.73326	0.0262921
14212.79921	1.5503399	2	19	1	2	7	2	14214.34955	5	0	14213.28367	0.8774303
14214.34955	1.5501073	2	20	1	2	8	1	14215.89966	6	0	14214.83401	0.5875901
14215.89966	1.5495965	2	21	1	2	9	2	14217.44926	7	0	14216.38402	0.2960124
14217.44926	1.5504994	2	22	1	2	10	1	14218.99976	8	n/a	14217.93393	n/a
14218.99976	1.5502892	2	23	1	2	11	1	14220.55004	8	n/a	14219.48416	n/a
14220.55004	1.5503548	2	24	1	2	12	2	14222.1004	8	n/a	14221.03428	n/a
14222.1004	1.5500793	2	25	1	2	13	1	14223.65048	8	n/a	14222.58465	n/a
14223.65048	1.5503116	2	26	1	2	14	2	14225.20079	8	n/a	14224.1348	n/a
14225.20079	1.5501398	2	27	1	2	15	1	14226.75093	8	n/a	14225.68507	n/a
14226.75093	1.5500457	2	28	1	2	16	1	14228.30098	8	1	14227.23529	0.5874698
14228.30098	1.5501904	2	29	1	2	17	2	14229.85117	8	1	14228.78544	0.5874011
14229.85117	1.5502246	2	30	1	2	18	1	14231.40139	8	1	14230.33557	0.3928881
14231.40139	1.5497717	2	31	1	2	19	2	14232.95116	7	1	14231.88572	0.5869831
14232.95116	1.5499565	2	32	1	2	20	1	14234.50112	7	1	14233.43542	0.006518
14234.50112	1.5501303	2	33	1	2	21	2	14236.05125	7	1	14234.98548	n/a
14236.05125	1.5505178	2	34	1	2	22	2	14237.60177	6	n/a	14236.53575	n/a
14237.60177	1.5498768	2	35	1	2	23	2	14239.15164	6	n/a	14238.08608	n/a
14239.15164	1.5502823	2	36	1	2	24	1	14240.70193	6	1	14239.63618	0.8775697
14240.70193	1.5498273	2	37	1	2	25	1	14242.25175	6	1	14241.18622	0.9739616
14242.25175	1.5503634	2	38	1	2	26	2	14243.80212	6	1	14242.73637	0.4895851
14243.80212	1.5499835	2	39	1	2	27	1	14245.3521	5	1	14244.28646	0.1993896
14245.3521	1.5499263	2	40	1	2	28	1	14246.90203	5	0	14245.83638	n/a
14246.90203	1.5506997	2	41	1	2	29	1	14248.45273	6	0	14247.38661	0.8776805
14248.45273	1.5502239	2	42	1	2	30	2	14250.00295	7	0	14248.93733	0.7805003
14250.00295	1.5500721	2	43	1	2	31	1	14251.55302	8	0	14250.4874	0.4891862
14251.55302	1.5501392	2	44	1	2	32	1	14253.10316	9	1	14252.03736	0.6828811
14253.10316	1.5502527	2	45	9	3	1	3	14254.65341	n/a	n/a	n/a	n/a
14254.65341	1.55021	2	46	9	3	2	3	14256.20362	n/a	n/a	n/a	n/a
14256.20362	1.5503174	2	47	9	3	3	3	14257.75394	n/a	n/a	n/a	n/a
14257.75394	1.5501534	2	48	9	3	4	3	14259.3041	n/a	n/a	n/a	n/a
14259.3041	1.5503184	2	49	9	3	5	3	14260.85441	n/a	n/a	n/a	n/a
14260.85441	1.5501664	2	50	9	3	6	3	14262.40458	n/a	n/a	n/a	n/a
14262.40458	1.5501767	2	51	9	3	7	3	14263.95476	n/a	n/a	n/a	n/a
14263.95476	1.5500222	2	52	9	3	8	3	14265.50478	n/a	n/a	n/a	n/a
14265.50478	1.550185	2	53	9	3	9	3	14267.05496	n/a	n/a	n/a	n/a
14267.05496	1.5498242	2	54	9	3	10	3	14268.60479	n/a	n/a	n/a	n/a
14268.60479	1.5504834	2	55	9	3	11	3	14270.15527	n/a	n/a	n/a	n/a
14270.15527	1.5499217	2	56	9	3	12	3	14271.70519	n/a	n/a	n/a	n/a
14271.70519	1.5508523	2	57	3	4	1	2	14273.25605	9	n/a	14272.19005	n/a
14273.25605	1.5499078	2	58	3	4	2	2	14274.80595	9	0	14273.74042	0.3927985
14274.80595	1.5503728	2	59	3	4	3	2	14276.35633	10	1	14275.29048	0.5868034
14276.35633	1.5500849	2	60	3	4	4	1	14277.90641	10	1	14276.84069	0.5860942
14277.90641	1.5504736	2	61	3	4	5	2	14279.45688	10	1	14278.39093	0.5861507
14279.45688	1.5503262	2	62	3	4	6	2	14281.00721	9	1	14279.9414	0.7800038
14281.00721	1.550647	2	63	3	4	7	1	14282.55786	9	1	14281.49164	0.4902422
14282.55786	1.5506543	2	64	3	4	8	2	14284.10851	9	1	14283.04251	0.4896231
14284.10851	1.5499811	2	65	3	4	9	2	14285.65849	8	1	14284.59272	0.5869245
14285.65849	1.5500733	2	66	3	4	10	2	14287.20857	8	1	14286.14283	0.5867555
14287.20857	1.5504465	2	67	3	4	11	1	14288.75901	8	1	14287.6928	0.4893997
14288.75901	1.5502177	2	68	3	4	12	1	14290.30923	7	0	14289.24341	0.198924
14290.30923	1.5501546	2	69	3	4	13	1	14291.85939	8	0	14290.79357	0.1997524
14291.85939	1.5501671	2	70	3	4	14	1	14293.40955	9	0	14292.3438	0.2001085
14293.40955	1.5501701	2	71	3	4	15	2	14294.95972	10	1	14293.89404	0.3927852
14294.95972	1.5500446	2	72	3	4	16	1	14296.50977	10	1	14295.44408	0.1140194
14296.50977	1.5507639	2	73	3	4	17	1	14298.06053	10	1	14296.99422	0.5871062
14298.06053	1.5499018	2	74	3	4	18	1	14299.61043	9	1	14298.54493	0.4898447
14299.61043	1.5498817	2	75	3	4	19	2	14301.16031	9	1	14300.09466	0.4902214
14301.16031	1.5501368	2	76	3	4	20	1	14302.71045	9	1	14301.64468	0.4899224
14302.71045	1.5506476	2	77	3	4	21	2	14304.2611	8	1	14303.19497	0.683414
14304.2611	1.5499711	2	78	3	4	22	1	14305.81107	8	1	14304.74543	0.490664
14305.81107	1.5506994	2	79	3	4	23	2	14307.36177	8	1	14306.29603	0.5863353
14307.36177	1.5498264	2	80	3	4	24	1	14308.9116	7	1	14307.84594	0.5868643
14308.9116	1.5501359	2	81	3	4	25	1	14310.46173	7	0	14309.39619	0.7807124
14310.46173	1.5499416	2	82	3	4	26	1	14312.01167	8	1	14310.94609	0.5862708
14312.01167	1.5503786	2	83	3	4	27	2	14313.56205	8	1	14312.49619	0.5867589
14313.56205	1.5502331	2	84	3	4	28	2	14315.11229	8	1	14314.04673	0.3923772
14315.11229	1.550214	2	85	3	4	29	1	14316.6625	7	1	14315.59679	0.2048385
14316.6625	1.5504334	2	86	3	4	30	2	14318.21293	7	1	14317.14694	0.1238257
14318.21293	1.5504086	2	87	3	4	31	2	14319.76334	7	n/a	14318.69725	n/a
14319.76334	1.5500272	2	88	3	4	32	2	14321.31337	7	n/a	14320.24755	n/a
14321.31337	1.5500851	2	89	9	5	1	3	14322.86345	n/a	n/a	n/a	n/a
14322.86345	1.5503569	2	90	9	5	2	3	14324.41381	n/a	n/a	n/a	n/a
14324.41381	1.5497534	2	91	9	5	3	3	14325.96356	n/a	n/a	n/a	n/a
14325.96356	1.5503333	2	92	9	5	4	3	14327.5139	n/a	n/a	n/a	n/a
14327.5139	1.550269	2	93	9	5	5	3	14329.06417	n/a	n/a	n/a	n/a
14329.06417	1.5502772	2	94	9	5	6	3	14330.61444	n/a	n/a	n/a	n/a
14330.61444	1.5500365	2	95	9	5	7	3	14332.16448	n/a	n/a	n/a	n/a
14332.16448	1.5500959	2	96	9	5	8	3	14333.71458	n/a	n/a	n/a	n/a
14333.71458	1.5500328	2	97	9	5	9	3	14335.26461	n/a	n/a	n/a	n/a
14335.26461	1.5504988	2	98	9	5	10	3	14336.81511	n/a	n/a	n/a	n/a
14336.81511	1.5498254	2	99	9	5	11	3	14338.36493	n/a	n/a	n/a	n/a
14338.36493	1.5503674	2	100	9	5	12	3	14339.9153	n/a	n/a	n/a	n/a
14339.9153	1.5502248	2	101	5	6	1	2	14341.46552	7	1	14340.39987	0.5860132
14341.46552	1.550441	2	102	5	6	2	2	14343.01597	6	0	14341.95002	0.004633500001
14343.01597	1.5500392	2	103	5	6	3	1	14344.56601	7	n/a	14343.50031	n/a
14344.56601	1.5503751	2	104	5	6	4	2	14346.11638	7	n/a	14345.05047	n/a
14346.11638	1.5503314	2	105	5	6	5	1	14347.66671	7	n/a	14346.60081	n/a
14347.66671	1.5502361	2	106	5	6	6	1	14349.21695	7	n/a	14348.15123	n/a
14349.21695	1.5503236	2	107	5	6	7	1	14350.76727	7	n/a	14349.70152	n/a
14350.76727	1.55002	2	108	5	6	8	2	14352.31729	7	0	14351.25169	0.005127699998
14352.31729	1.5500267	2	109	5	6	9	2	14353.86732	8	1	14352.80161	0.1991048
14353.86732	1.5501537	2	110	5	6	10	1	14355.41747	8	1	14354.35164	0.4894283
14355.41747	1.5499667	2	111	5	6	11	2	14356.96744	8	1	14355.9018	0.4899071
14356.96744	1.5496768	2	112	5	6	12	2	14358.51712	7	1	14357.4519	0.9738133
14358.51712	1.5502104	2	113	5	6	13	2	14360.06733	7	n/a	14359.00153	n/a
14360.06733	1.5497911	2	114	5	6	14	2	14361.61712	7	n/a	14360.55151	n/a
14361.61712	1.5499774	2	115	5	6	15	1	14363.16709	7	1	14362.10184	0.5865267
14363.16709	1.5503991	2	116	5	6	16	2	14364.71749	7	1	14363.65189	0.5866831
14364.71749	1.5503626	2	117	5	6	17	1	14366.26786	6	1	14365.20195	0.6836814
14366.26786	1.5501205	2	118	5	6	18	1	14367.81798	6	1	14366.75238	0.4894096
14367.81798	1.5503126	2	119	5	6	19	1	14369.36829	6	1	14368.30241	0.5869361
14369.36829	1.5500189	2	120	5	6	20	2	14370.91831	5	0	14369.85294	0.6828594
14370.91831	1.5504072	2	121	5	6	21	1	14372.46871	6	0	14371.40271	0.8773743
14372.46871	1.5502213	2	122	5	6	22	1	14374.01894	7	1	14372.95318	0.8775104
14374.01894	1.5502547	2	123	5	6	23	2	14375.56919	7	n/a	14374.50342	n/a
14375.56919	1.5494493	2	124	5	6	24	1	14377.11864	7	1	14376.0537	0.8766271
14377.11864	1.5497476	2	125	5	6	25	1	14378.66839	7	0	14377.60291	0.6831633
14378.66839	1.5504887	2	126	5	6	26	2	14380.21888	8	0	14379.1532	0.8771781
14380.21888	1.5502274	2	127	5	6	27	2	14381.7691	9	1	14380.7033	0.5860406
14381.7691	1.5505193	2	128	5	6	28	1	14383.31962	9	1	14382.25372	0.6832201
14383.31962	1.5502786	2	129	5	6	29	1	14384.8699	9	1	14383.80405	0.8768189
14384.8699	1.5508493	2	130	5	6	30	2	14386.42075	8	1	14385.35452	0.8773254
14386.42075	1.549971	2	131	5	6	31	2	14387.97072	8	1	14386.90517	0.973693
14387.97072	1.5504615	2	132	5	6	32	2	14389.52118	8	n/a	14388.45537	n/a
14389.52118	1.5508129	2	133	9	7	1	3	14391.072	n/a	n/a	n/a	n/a
14391.072	1.5502534	2	134	9	7	2	3	14392.62225	n/a	n/a	n/a	n/a
14392.62225	1.5506713	2	135	9	7	3	3	14394.17292	n/a	n/a	n/a	n/a
14394.17292	1.5506573	2	136	9	7	4	3	14395.72358	n/a	n/a	n/a	n/a
14395.72358	1.5505083	2	137	9	7	5	3	14397.27409	n/a	n/a	n/a	n/a
14397.27409	1.5504512	2	138	9	7	6	3	14398.82454	n/a	n/a	n/a	n/a
14398.82454	1.550142	2	139	9	7	7	3	14400.37468	n/a	n/a	n/a	n/a
14400.37468	1.5502294	2	140	9	7	8	3	14401.92491	n/a	n/a	n/a	n/a
14401.92491	1.5501776	2	141	9	7	9	3	14403.47509	n/a	n/a	n/a	n/a
14403.47509	1.5501315	2	142	9	7	10	3	14405.02522	n/a	n/a	n/a	n/a
14405.02522	1.5503008	2	143	9	7	11	3	14406.57552	n/a	n/a	n/a	n/a
14406.57552	1.5498899	2	144	9	7	12	3	14408.12541	n/a	n/a	n/a	n/a
14408.12541	1.5502487	2	145	7	8	1	2	14409.67566	8	n/a	14408.60983	n/a
14409.67566	1.5502842	2	146	7	8	2	1	14411.22594	8	0	14410.1602	0.395734
14411.22594	1.550509	2	147	7	8	3	1	14412.77645	9	1	14411.7106	0.494116
14412.77645	1.5499917	2	148	7	8	4	2	14414.32644	9	1	14413.26084	0.7848385
14414.32644	1.5503263	2	149	7	8	5	2	14415.87677	9	n/a	14414.81079	n/a
14415.87677	1.5505203	2	150	7	8	6	1	14417.42729	9	1	14416.36138	0.5907852
14417.42729	1.550381	2	151	7	8	7	1	14418.97767	8	1	14417.91201	0.687499
14418.97767	1.5505425	2	152	7	8	8	1	14420.52821	8	1	14419.4622	0.8818077
14420.52821	1.5505305	2	153	7	8	9	1	14422.07874	8	1	14421.01283	0.8819056
14422.07874	1.5499138	2	154	7	8	10	1	14423.62866	7	1	14422.56296	0.7852223
14423.62866	1.5503237	2	155	7	8	11	1	14425.17898	7	1	14424.11332	0.6878202
14425.17898	1.5502821	2	156	7	8	12	2	14426.72926	7	1	14425.66342	0.3995009
14426.72926	1.5510862	2	157	7	8	13	1	14428.28035	6	1	14427.21429	0.6874541
14428.28035	1.5502276	2	158	7	8	14	1	14429.83058	6	1	14428.76472	0.6882012
14429.83058	1.5500659	2	159	7	8	15	2	14431.38064	6	1	14430.31504	0.689914
14431.38064	1.5501083	2	160	7	8	16	2	14432.93075	5	1	14431.86491	0.7843516
14432.93075	1.550421	2	161	7	8	17	2	14434.48117	5	1	14433.41505	0.7870878
14434.48117	1.5502997	2	162	7	8	18	1	14436.03147	5	1	14434.96551	0.5902882
14436.03147	1.5498725	2	163	7	8	19	2	14437.58134	4	1	14436.51599	0.7842701
14437.58134	1.5503013	2	164	7	8	20	2	14439.13165	4	1	14438.06588	0.8809767
14439.13165	1.5500073	2	165	7	8	21	2	14440.68165	4	0	14439.61599	0.5901433
14440.68165	1.5499888	2	166	7	8	22	2	14442.23164	5	1	14441.16602	0.5925424
14442.23164	1.5502826	2	167	7	8	23	2	14443.78192	5	0	14442.71624	0.2990663
14443.78192	1.5502471	2	168	7	8	24	2	14445.33217	6	1	14444.26639	0.1083855
14445.33217	1.550479	2	169	7	8	25	1	14446.88265	6	1	14445.81664	0.3017606
14446.88265	1.5501377	2	170	7	8	26	1	14448.43279	6	n/a	14447.36688	n/a
14448.43279	1.553529	2	171	7	8	27	2	14449.98632	6	n/a	14448.91714	n/a
14449.98632	1.5509427	2	172	7	8	28	1	14451.53726	6	n/a	14450.47086	n/a
14451.53726	1.5505775	2	173	7	8	29	1	14453.08784	6	1	14452.02182	n/a
14453.08784	1.5501513	2	174	7	8	30	1	14454.63799	5	0	14453.57224	n/a
14454.63799	1.5502848	2	175	7	8	31	2	14456.18827	6	n/a	14455.12254	n/a
14456.18827	1.5504528	2	176	7	8	32	2	14457.73873	6	n/a	14456.67276	n/a
14457.73873	1.5506956	2	177	9	9	1	3	14459.28942	n/a	n/a	n/a	n/a
14459.28942	1.5504818	2	178	9	9	2	3	14460.8399	n/a	n/a	n/a	n/a
14460.8399	1.5502594	2	179	9	9	3	3	14462.39016	n/a	n/a	n/a	n/a
14462.39016	1.5507913	2	180	9	9	4	3	14463.94095	n/a	n/a	n/a	n/a
14463.94095	1.5501287	2	181	9	9	5	3	14465.49108	n/a	n/a	n/a	n/a
14465.49108	1.5503506	2	182	9	9	6	3	14467.04143	n/a	n/a	n/a	n/a
14467.04143	1.5503018	2	183	9	9	7	3	14468.59174	n/a	n/a	n/a	n/a
14468.59174	1.5502013	2	184	9	9	8	3	14470.14194	n/a	n/a	n/a	n/a
14470.14194	1.5502536	2	185	9	9	9	3	14471.69219	n/a	n/a	n/a	n/a
14471.69219	1.5503526	2	186	9	9	10	3	14473.24254	n/a	n/a	n/a	n/a
14473.24254	1.5501433	2	187	9	9	11	3	14474.79269	n/a	n/a	n/a	n/a
14474.79269	1.5499162	2	188	9	9	12	3	14476.3426	n/a	n/a	n/a	n/a
