onset	duration	run_number	trial_number	spatial_frequency	michelson_contrast	probe_orientation	response_correctness	probe_time	reaction_time
3635.557603	0.4164792	1	1	2	12	2	n/a	3635.640774	n/a
3635.974296	1.599537322	1	2	2	11	1	1	3636.37404	0.6016462
3637.573849	1.5998646	1	3	2	10	1	0	3637.9738	0.4015274
3639.17362	1.5998284	1	4	2	9	1	1	3639.573717	0.6013518
3640.773382	1.5997881	1	5	2	8	2	1	3641.173374	0.4011128
3642.373189	1.5999071	1	6	2	7	1	1	3642.773105	0.4006601
3643.973072	1.5996257	1	7	2	6	2	0	3644.372954	0.4020405
3645.572743	1.5997257	1	8	2	5	1	1	3645.972828	0.3039751321
3647.172609	1.5996109	1	9	2	4	2	1	3647.572365	0.3005473
3648.772368	1.5996715	1	10	2	3	1	1	3649.172307	0.2012077
3650.372132	1.5997757	1	11	2	2	2	1	3650.772065	0.4023301
3651.971895	1.5997691	1	12	2	1	2	0	3652.371835	0.5010638
3653.571652	1.599785	1	13	4	1	2	1	3653.971642	0.705252122
3655.17142	1.5997866	1	14	4	2	2	0	3655.571363	0.9999785
3656.771181	1.5997831	1	15	4	3	1	0	3657.171115	1.0010279
3658.370943	1.5998078	1	16	4	4	1	1	3658.770742	0.800831
3659.970545	1.5999321	1	17	4	5	1	n/a	3660.370644	n/a
3661.570382	1.5998649	1	18	4	6	2	1	3661.970404	0.9014368
3663.170233	1.5997789	1	19	4	7	2	1	3663.570173	0.7006116
3664.770012	1.5997711	1	20	4	8	1	1	3665.169942	0.5000896
3666.369758	1.599621	1	21	4	9	1	1	3666.769548	0.600642
3667.969492	1.5996091	1	22	4	10	1	1	3668.369457	0.600118
3669.569276	1.5997863	1	23	4	11	1	1	3669.969222	0.5004869
3671.169042	1.5997819	1	24	4	12	2	1	3671.568992	0.6004741
3672.768824	1.5997596	1	25	4	12	1	1	3673.168743	0.600508
3674.368572	1.599615	1	26	4	11	1	1	3674.768507	0.5005928
3675.968325	1.5997789	1	27	4	10	2	1	3676.368268	0.5006078
3677.568104	1.599824756	1	28	4	9	2	1	3677.968036	0.400544
3679.167715	1.5999135	1	29	4	8	1	1	3679.567784	0.5006156
3680.767693	1.599622088	1	30	4	7	2	1	3681.167629	0.5003755321
3682.367245	1.5997877	1	31	4	6	2	1	3682.767313	0.7005284
3683.967165	1.5997701	1	32	4	5	2	1	3684.367117	1.000404
3685.56693	1.5997832	1	33	4	4	1	1	3685.96688	1.0003965
3687.166674	1.5998059	1	34	4	3	2	n/a	3687.566635	n/a
3688.766466	1.5997825	1	35	4	2	1	n/a	3689.166415	n/a
3690.366228	1.5997763	1	36	4	1	2	n/a	3690.766203	n/a
3691.965998	1.599776	1	37	6	1	1	n/a	3692.365881	n/a
3693.565755	1.5996063	1	38	6	2	1	n/a	3693.96569	n/a
3695.165482	1.5998102	1	39	6	3	1	n/a	3695.565457	n/a
3696.765254	1.5997876	1	40	6	4	2	n/a	3697.165224	n/a
3698.365085	1.599733788	1	41	6	5	1	n/a	3698.764989	n/a
3699.964777	1.5997975	1	42	6	6	2	n/a	3700.364747	n/a
3701.564564	1.5997874	1	43	6	7	1	n/a	3701.964513	n/a
3703.164332	1.5997862	1	44	6	8	2	n/a	3703.564183	n/a
3704.764098	1.5996175	1	45	6	9	2	n/a	3705.163877	n/a
3706.363864	1.5997696	1	46	6	10	2	n/a	3706.763822	n/a
3707.963633	1.5997726	1	47	6	11	2	n/a	3708.363552	n/a
3709.563396	1.5997695	1	48	6	12	1	1	3709.963354	0.7005251
3711.163156	1.5997792	1	49	6	12	2	1	3711.563089	0.6005416
3712.762921	1.5997452	1	50	6	11	2	1	3713.16286	1
3714.362553	1.5999186	1	51	6	10	1	1	3714.762594	1.0005253
3715.962499	1.599707432	1	52	6	9	2	1	3716.362424	0.900480566
3717.562227	1.5997431	1	53	6	8	1	1	3717.96211	0.7000382
3719.161957	1.5997749	1	54	6	7	2	1	3719.561899	0.7005426
3720.761717	1.5997785	1	55	6	6	2	0	3721.161666	0.4006581
3722.361538	1.5997333	1	56	6	5	2	0	3722.76144	0.5010205
3723.961248	1.5996232	1	57	6	4	1	0	3724.361032	0.8008969
3725.561017	1.5997942	1	58	6	3	1	1	3725.960939	0.8005596
3727.160788	1.5998183	1	59	6	2	1	0	3727.56056	0.8007388
3728.76041	1.5999251	1	60	6	1	2	0	3729.160499	0.5006155
3730.360325	1.5997398	1	61	1	1	1	0	3730.76027	0.2013203
3731.960092	1.5997782	1	62	1	2	1	1	3732.360035	0.2006772
3733.559857	1.5997906	1	63	1	3	2	1	3733.959737	0.3006404
3735.159595	1.5997581	1	64	1	4	1	1	3735.559396	1.0006548
3736.759225	1.5999216	1	65	1	5	2	1	3737.159317	0.9005268
3738.359152	1.5997813	1	66	1	6	2	n/a	3738.759084	n/a
3739.958908	1.5997738	1	67	1	7	1	1	3740.358851	0.6005553
3741.558675	1.5996188	1	68	1	8	1	1	3741.958615	0.6005658
3743.158438	1.5998087	1	69	1	9	2	1	3743.55835	0.5003508
3744.758209	1.5997795	1	70	1	10	2	1	3745.158153	0.5005879
3746.357769	1.5999851	1	71	1	11	2	1	3746.757862	0.500614
3747.957678	1.5998361	1	72	1	12	2	1	3748.357675	0.50059
3749.557497	1.599781	1	73	1	12	1	1	3749.957234	0.4007851
3751.157261	1.5997852	1	74	1	11	1	1	3751.557153	0.7005804
3752.757037	1.5997623	1	75	1	10	2	1	3753.156967	0.5006523
3754.356789	1.5997822	1	76	1	9	1	1	3754.756568	0.500718
3755.956579	1.5997441	1	77	1	8	1	1	3756.356497	0.5005509
3757.556314	1.5997796	1	78	1	7	1	1	3757.956267	0.5005571
3759.156046	1.5998304	1	79	1	6	2	1	3759.555981	0.5006466
3760.755817	1.5998124	1	80	1	5	1	1	3761.155783	0.5005257
3762.355632	1.5997623	1	81	1	4	1	1	3762.755565	0.6000995
3763.955383	1.5997672	1	82	1	3	2	1	3764.355166	0.600757
3765.555159	1.5997536	1	83	1	2	1	1	3765.954918	0.4007613
3767.154729	1.5998482	1	84	1	1	1	0	3767.554823	0.5001338
3768.754647	1.5997828	1	85	2	1	2	0	3769.154601	0.6005298
3770.354414	1.5996119	1	86	2	2	1	0	3770.754381	1.1000025
3771.954188	1.5997658	1	87	2	3	2	n/a	3772.354135	n/a
3773.55394	1.5997875	1	88	2	4	1	n/a	3773.953882	n/a
3775.153706	1.599847868	1	89	2	5	2	1	3775.553651	0.7005274
3776.753482	1.5997554	1	90	2	6	2	1	3777.153385	0.7005351
3778.353077	1.5999514	1	91	2	7	1	1	3778.753202	0.500543
3779.953024	1.5997716	1	92	2	8	2	1	3780.352957	0.5005849
3781.552783	1.5997753	1	93	2	9	2	1	3781.952727	0.7005128
3783.152536	1.5997834	1	94	2	10	2	1	3783.552466	0.7005495
3784.75233	1.5997609	1	95	2	11	1	0	3785.152245	0.5005623
3786.352081	1.5997683	1	96	2	12	2	1	3786.752016	0.400566
3787.951842	1.5997717	1	97	3	12	1	1	3788.351772	0.4007187
3789.551552	1.5998364	1	98	3	11	2	1	3789.951546	0.5006206
3791.15138	1.5997684	1	99	3	10	1	1	3791.551306	0.5005619
3792.751077	1.5998417	1	100	3	9	2	1	3793.151058	0.5005834
3794.350905	1.5997696	1	101	3	8	1	1	3794.750846	0.4005992
3795.950661	1.5997832	1	102	3	7	2	1	3796.350611	0.5005518
3797.550434	1.5997612	1	103	3	6	1	1	3797.950372	0.5000955
3799.150188	1.5997806	1	104	3	5	2	1	3799.550052	0.5006312
3800.749788	1.5998209	1	105	3	4	2	1	3801.149764	0.5006995
3802.349691	1.5998272	1	106	3	3	1	1	3802.749669	0.7005302
3803.949483	1.599822378	1	107	3	2	2	n/a	3804.349434	n/a
3805.549247	1.5997823	1	108	3	1	1	1	3805.949204	1.0005027
3807.149013	1.5996144	1	109	3	1	2	n/a	3807.54879	n/a
3808.748773	1.5997805	1	110	3	2	2	1	3809.148713	0.0006401999999
3810.348534	1.5998	1	111	3	3	1	1	3810.748481	0.400552
3811.948116	1.5999665	1	112	3	4	1	0	3812.348243	0.9005317
3813.548084	1.5997673	1	113	3	5	2	n/a	3813.948022	n/a
3815.147825	1.5997932	1	114	3	6	2	1	3815.547781	0.2005883
3816.747604	1.599763	1	115	3	7	1	1	3817.147551	0.5000433
3818.347346	1.5995873	1	116	3	8	1	1	3818.747127	0.7007294
3819.946945	1.5999456	1	117	3	9	2	1	3820.347043	0.6005394
3821.546848	1.5998038	1	118	3	10	1	1	3821.946826	0.5005488
3823.146565	1.5998535	1	119	3	11	1	1	3823.546387	0.500751
3824.746403	1.5997455	1	120	3	12	2	1	3825.146351	0.6005394
3826.346148	1.599792	1	121	5	12	2	1	3826.746115	0.5005586
3827.945894	1.5997714	1	122	5	11	1	1	3828.345885	0.6006232
3829.545721	1.599816278	1	123	5	10	2	1	3829.945492	0.6007532
3831.145317	1.599948	1	124	5	9	1	1	3831.545417	0.6005661
3832.745256	1.5997574	1	125	5	8	2	1	3833.145138	0.6005945
3834.345004	1.599788	1	126	5	7	2	1	3834.744754	0.7007663
3835.944779	1.5997295	1	127	5	6	2	0	3836.344718	1.0005422
3837.544547	1.5997703	1	128	5	5	2	1	3837.944487	0.7000703
3839.144307	1.5997826	1	129	5	4	2	0	3839.544238	0.6006618
3840.744077	1.599611	1	130	5	3	1	0	3841.143821	0.8007198
3842.343762	1.5998128	1	131	5	2	1	1	3842.743774	0.8005549
3843.9436	1.5997741	1	132	5	1	2	1	3844.343492	0.7006048
3845.543361	1.5997792	1	133	5	1	2	0	3845.943305	0.6005445
3847.143133	1.599761	1	134	5	2	2	1	3847.543069	0.7005341
3848.742886	1.5997446	1	135	5	3	2	0	3849.142832	0.5005209
3850.342655	1.5997782	1	136	5	4	2	1	3850.742596	0.4005854
3851.94242	1.5996047	1	137	5	5	2	0	3852.342362	0.5005557
3853.542142	1.5998203	1	138	5	6	1	0	3853.942126	0.7004959
3855.14195	1.5997908	1	139	5	7	1	1	3855.541854	0.6005875
3856.741564	1.5999212	1	140	5	8	1	1	3857.141657	0.6005877
3858.341482	1.5997698	1	141	5	9	2	1	3858.741415	0.5001051
3859.941252	1.599603	1	142	5	10	1	1	3860.341091	0.5007375
3861.541024	1.5997992	1	143	5	11	2	1	3861.940949	0.4005753
3863.140773	1.5997822	1	144	5	12	1	1	3863.540551	0.5008403
