onset	duration	run_number	trial_number	spatial_frequency	michelson_contrast	probe_orientation	response_correctness	probe_time	reaction_time
1209.044606	3.773305375	1	1	2	12	2	n/a	1211.207564	n/a
1212.837573	1.982510875	1	2	2	11	1	n/a	1213.360004	n/a
1214.838205	1.825105959	1	3	2	10	2	n/a	1215.312788	n/a
1216.678172	1.76167875	1	4	2	9	1	n/a	1217.115659	n/a
1218.45427	1.713176417	1	5	2	8	2	n/a	1218.874223	n/a
1220.172812	1.557820333	1	6	2	7	1	n/a	1220.554852	n/a
1221.72689	1.515516959	1	7	2	6	2	n/a	1222.121076	n/a
1223.235202	1.503880042	1	8	2	5	2	n/a	1223.618141	n/a
1224.731791	1.492915292	1	9	2	4	1	n/a	1225.103202	n/a
1226.217537	1.492695458	1	10	2	3	1	n/a	1226.588832	n/a
1227.703081	1.49210025	1	11	2	2	2	n/a	1228.074309	n/a
1229.188017	1.492770292	1	12	2	1	2	n/a	1229.559499	n/a
1230.673712	1.493254583	1	13	2	1	1	n/a	1231.04565	n/a
1232.160588	1.49396725	1	14	2	2	2	n/a	1232.532439	n/a
1233.64761	1.492865041	1	15	2	3	1	n/a	1234.019169	n/a
1235.133614	1.493721875	1	16	2	4	2	n/a	1235.505649	n/a
1236.620173	1.493390541	1	17	2	5	2	n/a	1236.991506	n/a
1238.106258	1.492000625	1	18	2	6	1	n/a	1238.476725	n/a
1239.593981	1.52915275	1	19	2	7	2	n/a	1239.973696	n/a
1241.117932	1.661770375	1	20	2	8	2	n/a	1241.531851	n/a
1242.785426	1.761620917	1	21	2	9	2	n/a	1243.228366	n/a
1244.563485	1.831063625	1	22	2	10	2	n/a	1245.027457	n/a
1246.41112	1.940179709	1	23	2	11	2	n/a	1246.912077	n/a
1248.379373	2.087878958	1	24	2	12	1	n/a	1248.911412	n/a
1250.515738	2.25735075	1	25	6	12	1	n/a	1251.094228	n/a
1252.808732	2.130775958	1	26	6	11	1	n/a	1253.38996	n/a
1254.974683	2.240105417	1	27	6	10	2	n/a	1255.578565	n/a
1257.251499	2.179418334	1	28	6	9	2	n/a	1257.826862	n/a
1259.465664	2.101758542	1	29	6	8	2	n/a	1260.005321	n/a
1261.606543	2.119964291	1	30	6	7	1	n/a	1262.146788	n/a
1263.760416	2.05747125	1	31	6	6	2	n/a	1264.281958	n/a
1265.843261	1.922426417	1	32	6	5	1	n/a	1266.32864	n/a
1267.7909	1.913416375	1	33	6	4	1	n/a	1268.287371	n/a
1269.723809	1.895970208	1	34	6	3	1	n/a	1270.196742	n/a
1271.638996	1.862122042	1	35	6	2	2	n/a	1272.11231	n/a
1273.521235	1.891477208	1	36	6	1	1	n/a	1274.000536	n/a
1275.433032	1.533270959	1	37	4	1	1	n/a	1275.818022	n/a
1276.962054	1.542429167	1	38	4	2	1	n/a	1277.342205	n/a
1278.499361	1.521193083	1	39	4	3	1	n/a	1278.873074	n/a
1280.0157	1.516760459	1	40	4	4	1	n/a	1280.386445	n/a
1281.528465	1.61853225	1	41	4	5	2	n/a	1281.934963	n/a
1283.161939	1.779519541	1	42	4	6	2	n/a	1283.619918	n/a
1284.958417	1.87908725	1	43	4	7	2	n/a	1285.446493	n/a
1286.863066	1.992816625	1	44	4	8	2	n/a	1287.387359	n/a
1288.890867	2.111577625	1	45	4	9	2	n/a	1289.451686	n/a
1291.043471	2.175589666	1	46	4	10	2	n/a	1291.618797	n/a
1293.272518	2.263647584	1	47	4	11	2	n/a	1293.875997	n/a
1295.59623	2.317737875	1	48	4	12	2	n/a	1296.191595	n/a
1297.961583	2.328833125	1	49	5	12	1	n/a	1298.568602	n/a
1300.331071	2.272620458	1	50	5	11	2	n/a	1300.936418	n/a
1302.632492	2.195314625	1	51	5	10	2	n/a	1303.232193	n/a
1304.863499	2.248421125	1	52	5	9	2	n/a	1305.445786	n/a
1307.14818	2.234838917	1	53	5	8	2	n/a	1307.749451	n/a
1309.413358	2.146550125	1	54	5	7	1	n/a	1309.962629	n/a
1311.61391	1.998854417	1	55	5	6	2	n/a	1312.148502	n/a
1313.638417	1.92824775	1	56	5	5	1	n/a	1314.167349	n/a
1315.585021	1.755355542	1	57	5	4	1	n/a	1316.030415	n/a
1317.358208	1.796482084	1	58	5	3	2	n/a	1317.856786	n/a
1319.168002	1.793535917	1	59	5	2	2	n/a	1319.639345	n/a
1320.971805	1.794748125	1	60	5	1	2	n/a	1321.42382	n/a
1322.771929	1.613150708	1	61	5	1	2	n/a	1323.17738	n/a
1324.386488	1.641978583	1	62	5	2	2	n/a	1324.796652	n/a
1326.027216	1.692444667	1	63	5	3	1	n/a	1326.433857	n/a
1327.733254	1.74960225	1	64	5	4	2	n/a	1328.183755	n/a
1329.497762	1.823605458	1	65	5	5	1	n/a	1329.966951	n/a
1331.346366	1.930371834	1	66	5	6	2	n/a	1331.856833	n/a
1333.299017	2.082179792	1	67	5	7	2	n/a	1333.838332	n/a
1335.414586	2.435352583	1	68	5	8	2	n/a	1335.99773	n/a
1337.88492	1.973015	1	69	5	9	2	n/a	1338.388845	n/a
1339.937045	2.177581208	1	70	5	10	2	n/a	1340.445585	n/a
1342.156406	2.277558625	1	71	5	11	2	n/a	1342.728123	n/a
1344.485716	2.214234167	1	72	5	12	2	n/a	1345.037249	n/a
1346.735422	2.122420458	1	73	3	12	2	n/a	1347.280092	n/a
1348.890185	2.11171375	1	74	3	11	2	n/a	1349.431189	n/a
1351.041588	2.132923083	1	75	3	10	1	n/a	1351.624635	n/a
1353.204336	2.026642667	1	76	3	9	1	n/a	1353.741964	n/a
1355.247686	1.876721417	1	77	3	8	2	n/a	1355.782421	n/a
1357.137101	1.803914958	1	78	3	7	1	n/a	1357.608552	n/a
1358.972527	2.006570292	1	79	3	6	2	n/a	1359.745839	n/a
1360.977912	1.534479875	1	80	3	5	1	n/a	1361.380157	n/a
1362.505532	1.526206791	1	81	3	4	2	n/a	1362.910225	n/a
1364.024498	1.542107792	1	82	3	3	2	n/a	1364.446133	n/a
1365.559435	1.492839417	1	83	3	2	1	n/a	1365.931072	n/a
1367.045093	1.509450583	1	84	3	1	2	n/a	1367.416615	n/a
1368.547333	1.496673166	1	85	1	1	1	n/a	1368.919113	n/a
1370.036622	1.509092625	1	86	1	2	1	n/a	1370.407542	n/a
1371.548818	1.510596917	1	87	1	3	1	n/a	1371.920293	n/a
1373.052269	1.503598209	1	88	1	4	1	n/a	1373.42386	n/a
1374.562079	1.501235167	1	89	1	5	1	n/a	1374.933635	n/a
1376.056402	1.492285875	1	90	1	6	1	n/a	1376.427544	n/a
1377.541545	1.518226583	1	91	1	7	1	n/a	1377.913054	n/a
1379.080383	1.597646375	1	92	1	8	1	n/a	1379.467136	n/a
1380.675134	1.683135083	1	93	1	9	1	n/a	1381.099217	n/a
1382.36552	1.785755792	1	94	1	10	2	n/a	1382.834713	n/a
1384.173914	1.88517425	1	95	1	11	1	n/a	1384.642406	n/a
1386.073391	1.919064667	1	96	1	12	2	n/a	1386.550386	n/a
1388.023473	2.304558542	1	97	4	12	2	n/a	1388.634066	n/a
1390.38181	2.255005	1	98	4	11	1	n/a	1390.970889	n/a
1392.677687	2.184262583	1	99	4	10	2	n/a	1393.246392	n/a
1394.897286	2.144408542	1	100	4	9	1	n/a	1395.449038	n/a
1397.081438	2.065712084	1	101	4	8	1	n/a	1397.617786	n/a
1399.174977	1.91299475	1	102	4	7	1	n/a	1399.660313	n/a
1401.107665	1.756089833	1	103	4	6	2	n/a	1401.55773	n/a
1402.873791	1.642439209	1	104	4	5	2	n/a	1403.288704	n/a
1404.518794	1.559048666	1	105	4	4	1	n/a	1404.903066	n/a
1406.079476	1.567217666	1	106	4	3	1	n/a	1406.46849	n/a
1407.643416	1.564364709	1	107	4	2	2	n/a	1408.034175	n/a
1409.204343	1.560575458	1	108	4	1	2	n/a	1409.592993	n/a
1410.763927	1.910358417	1	109	6	1	1	n/a	1411.241173	n/a
1412.695475	1.909885833	1	110	6	2	1	n/a	1413.174671	n/a
1414.625003	1.895041083	1	111	6	3	2	n/a	1415.108775	n/a
1416.540732	1.925984916	1	112	6	4	1	n/a	1417.028166	n/a
1418.488373	1.981832709	1	113	6	5	1	n/a	1418.993798	n/a
1420.500592	2.073238917	1	114	6	6	1	n/a	1421.023472	n/a
1422.612357	2.138415666	1	115	6	7	1	n/a	1423.160682	n/a
1424.791734	2.187710666	1	116	6	8	2	n/a	1425.348101	n/a
1427.017985	2.176227	1	117	6	9	2	n/a	1427.573463	n/a
1429.232182	2.275748	1	118	6	10	1	n/a	1429.807532	n/a
1431.550697	2.219925	1	119	6	11	2	n/a	1432.117624	n/a
1433.816357	2.0389485	1	120	6	12	2	n/a	1434.371252	n/a
1435.876251	1.940759875	1	121	1	12	2	n/a	1436.390448	n/a
1437.839758	1.856414667	1	122	1	11	1	n/a	1438.309248	n/a
1439.71254	1.777933375	1	123	1	10	2	n/a	1440.156456	n/a
1441.500085	1.653495125	1	124	1	9	2	n/a	1441.917011	n/a
1443.15381	1.543269125	1	125	1	8	2	n/a	1443.538653	n/a
1444.692437	1.495960584	1	126	1	7	2	n/a	1445.065967	n/a
1446.181636	1.492742375	1	127	1	6	2	n/a	1446.553173	n/a
1447.667505	1.4936515	1	128	1	5	2	n/a	1448.03898	n/a
1449.154044	1.4932585	1	129	1	4	1	n/a	1449.525774	n/a
1450.640003	1.493381667	1	130	1	3	1	n/a	1451.012059	n/a
1452.126514	1.493216208	1	131	1	2	1	n/a	1452.498205	n/a
1453.612515	1.493312833	1	132	1	1	1	n/a	1453.984493	n/a
1455.098491	1.4927265	1	133	3	1	2	n/a	1455.470209	n/a
1456.584095	1.492059041	1	134	3	2	1	n/a	1456.95543	n/a
1458.068991	1.49211	1	135	3	3	1	n/a	1458.440022	n/a
1459.553824	1.492517375	1	136	3	4	1	n/a	1459.925144	n/a
1461.039367	1.505580292	1	137	3	5	1	n/a	1461.414237	n/a
1462.539379	1.621774916	1	138	3	6	2	n/a	1462.942399	n/a
1464.168725	1.77034175	1	139	3	7	1	n/a	1464.616617	n/a
1465.951574	1.840756708	1	140	3	8	2	n/a	1466.432865	n/a
1467.815335	1.931648625	1	141	3	9	2	n/a	1468.311444	n/a
1469.774688	2.08460775	1	142	3	10	2	n/a	1470.334572	n/a
1471.899038	2.218040541	1	143	3	11	1	n/a	1472.47049	n/a
1474.165544	2.277166167	1	144	3	12	1	n/a	1474.748607	n/a
