onset	duration	run_number	trial_number	spatial_frequency	michelson_contrast	probe_orientation	response_correctness	probe_time	reaction_time
2517.767048	1.5998873	1	1	7	13	3	n/a	2518.167087	n/a
2519.366823	1.599887663	1	2	7	13	3	n/a	2519.766809	n/a
2520.9667	1.599714073	1	3	7	13	3	n/a	2521.366598	n/a
2522.566271	1.5998795	1	4	7	13	3	n/a	2522.966345	n/a
2524.16623	1.599782382	1	5	6	12	1	n/a	2524.566175	n/a
2525.765936	1.5997782	1	6	6	11	1	n/a	2526.165697	n/a
2527.365605	1.5998174	1	7	6	10	1	n/a	2527.765698	n/a
2528.965533	1.599720273	1	8	6	9	2	n/a	2529.365431	n/a
2530.565215	1.5998129	1	9	6	8	2	n/a	2530.965031	n/a
2532.165008	1.599842227	1	10	6	7	1	n/a	2532.564985	n/a
2533.76477	1.5996573	1	11	6	6	2	n/a	2534.16455	n/a
2535.364389	1.599995208	1	12	6	5	1	n/a	2535.764535	n/a
2536.964306	1.5997567	1	13	6	4	1	n/a	2537.364298	n/a
2538.563968	1.5998894	1	14	6	3	1	n/a	2538.963862	n/a
2540.163895	1.599787163	1	15	6	2	2	n/a	2540.563846	n/a
2541.763576	1.5996565	1	16	6	1	2	n/a	2542.163558	n/a
2543.363417	1.59968111	1	17	2	1	1	n/a	2543.763357	n/a
2544.963195	1.59971951	1	18	2	2	1	n/a	2545.363129	n/a
2546.562805	1.5999307	1	19	2	3	1	n/a	2546.962645	n/a
2548.162667	1.599846127	1	20	2	4	2	n/a	2548.562611	n/a
2549.76244	1.5997948	1	21	2	5	2	n/a	2550.162373	n/a
2551.362254	1.599736584	1	22	2	6	2	n/a	2551.762082	n/a
2552.961832	1.5997833	1	23	2	7	1	n/a	2553.36176	n/a
2554.561673	1.5998378	1	24	2	8	2	n/a	2554.961522	n/a
2556.161557	1.599776182	1	25	2	9	2	n/a	2556.561459	n/a
2557.761108	1.599997908	1	26	2	10	1	n/a	2558.16127	n/a
2559.361032	1.5997873	1	27	2	11	1	n/a	2559.760975	n/a
2560.960804	1.5997741	1	28	2	12	1	n/a	2561.360743	n/a
2562.560567	1.599838708	1	29	4	12	2	n/a	2562.960513	n/a
2564.160392	1.599562073	1	30	4	11	1	n/a	2564.560273	n/a
2565.760155	1.599785518	1	31	4	10	2	n/a	2566.160102	n/a
2567.359926	1.599718773	1	32	4	9	1	n/a	2567.759865	n/a
2568.95963	1.5997781	1	33	4	8	2	n/a	2569.359563	n/a
2570.55939	1.5997808	1	34	4	7	1	n/a	2570.959323	n/a
2572.159152	1.599624	1	35	4	6	2	n/a	2572.55894	n/a
2573.758916	1.5997596	1	36	4	5	2	n/a	2574.158863	n/a
2575.358757	1.599588837	1	37	4	4	2	n/a	2575.758625	n/a
2576.958521	1.599717147	1	38	4	3	2	n/a	2577.35828	n/a
2578.55822	1.5998164	1	39	4	2	2	n/a	2578.958177	n/a
2580.158052	1.599782182	1	40	4	1	1	n/a	2580.557994	n/a
2581.757811	1.599791637	1	41	1	1	1	n/a	2582.157762	n/a
2583.357494	1.599872045	1	42	1	2	1	n/a	2583.757358	n/a
2584.957122	1.5998683	1	43	1	3	2	n/a	2585.357076	n/a
2586.556916	1.5999283	1	44	1	4	1	n/a	2586.957006	n/a
2588.156831	1.599785	1	45	1	5	2	n/a	2588.556835	n/a
2589.756594	1.599839327	1	46	1	6	1	n/a	2590.156547	n/a
2591.356331	1.5996271	1	47	1	7	2	n/a	2591.756306	n/a
2592.956129	1.5997857	1	48	1	8	1	n/a	2593.355931	n/a
2594.555946	1.599620018	1	49	1	9	1	n/a	2594.955842	n/a
2596.155663	1.599830816	1	50	1	10	1	n/a	2596.555601	n/a
2597.755433	1.599825216	1	51	1	11	2	n/a	2598.155365	n/a
2599.355197	1.599781	1	52	1	12	1	n/a	2599.75514	n/a
2600.95496	1.5997818	1	53	2	12	1	n/a	2601.354897	n/a
2602.554786	1.59978019	1	54	2	11	2	n/a	2602.954683	n/a
2604.154496	1.5997877	1	55	2	10	2	n/a	2604.554495	n/a
2605.754258	1.5997891	1	56	2	9	2	n/a	2606.154265	n/a
2607.353871	1.5999379	1	57	2	8	2	n/a	2607.754026	n/a
2608.953808	1.5996171	1	58	2	7	1	n/a	2609.353737	n/a
2610.553611	1.599777147	1	59	2	6	2	n/a	2610.953508	n/a
2612.153333	1.5997815	1	60	2	5	2	n/a	2612.553296	n/a
2613.75313	1.599751	1	61	2	4	1	n/a	2614.153063	n/a
2615.35292	1.599735192	1	62	2	3	2	n/a	2615.752851	n/a
2616.952686	1.5997789	1	63	2	2	1	n/a	2617.352564	n/a
2618.552262	1.5997463	1	64	2	1	1	n/a	2618.952321	n/a
2620.152221	1.599577955	1	65	5	1	2	n/a	2620.552162	n/a
2621.751763	1.5997756	1	66	5	2	2	n/a	2622.151708	n/a
2623.351675	1.5997959	1	67	5	3	2	n/a	2623.751609	n/a
2624.951453	1.5996796	1	68	5	4	1	n/a	2625.351241	n/a
2626.551058	1.600009427	1	69	5	5	2	n/a	2626.951164	n/a
2628.150985	1.5997994	1	70	5	6	1	n/a	2628.550921	n/a
2629.750761	1.5997893	1	71	5	7	1	n/a	2630.150709	n/a
2631.350536	1.5997703	1	72	5	8	1	n/a	2631.750526	n/a
2632.950352	1.599775363	1	73	5	9	1	n/a	2633.350081	n/a
2634.550059	1.5997809	1	74	5	10	2	n/a	2634.94988	n/a
2636.14983	1.599839527	1	75	5	11	1	n/a	2636.549832	n/a
2637.749437	1.599997127	1	76	5	12	2	n/a	2638.149597	n/a
2639.34933	1.599874045	1	77	3	12	1	n/a	2639.749359	n/a
2640.949127	1.5997955	1	78	3	11	2	n/a	2641.349128	n/a
2642.548899	1.5997834	1	79	3	10	1	n/a	2642.948893	n/a
2644.148499	1.59999169	1	80	3	9	2	n/a	2644.548608	n/a
2645.748494	1.599649755	1	81	3	8	2	n/a	2646.148237	n/a
2647.34824	1.5997424	1	82	3	7	2	n/a	2647.747991	n/a
2648.947788	1.5999819	1	83	3	6	1	n/a	2649.347872	n/a
2650.547626	1.5999287	1	84	3	5	1	n/a	2650.947736	n/a
2652.147536	1.599806082	1	85	3	4	1	n/a	2652.547283	n/a
2653.747318	1.5997511	1	86	3	3	2	n/a	2654.147217	n/a
2655.347092	1.599570292	1	87	3	2	1	n/a	2655.746833	n/a
2656.946857	1.599781808	1	88	3	1	2	n/a	2657.346739	n/a
2658.546566	1.599838763	1	89	6	1	2	n/a	2658.946543	n/a
2660.14627	1.599903035	1	90	6	2	2	n/a	2660.546333	n/a
2661.746158	1.599744137	1	91	6	3	1	n/a	2662.146049	n/a
2663.345863	1.599837263	1	92	6	4	1	n/a	2663.745813	n/a
2664.945688	1.599787618	1	93	6	5	1	n/a	2665.345599	n/a
2666.545457	1.59956021	1	94	6	6	2	n/a	2666.945182	n/a
2668.145138	1.5998021	1	95	6	7	1	n/a	2668.545163	n/a
2669.744924	1.5998314	1	96	6	8	2	n/a	2670.144871	n/a
2671.344513	1.5999656	1	97	6	9	2	n/a	2671.744635	n/a
2672.94453	1.599781463	1	98	6	10	2	n/a	2673.344454	n/a
2674.544214	1.599788	1	99	6	11	1	n/a	2674.944174	n/a
2676.144052	1.599789427	1	100	6	12	1	n/a	2676.543912	n/a
2677.743814	1.599791582	1	101	5	12	1	n/a	2678.143555	n/a
2679.343511	1.5998049	1	102	5	11	2	n/a	2679.743539	n/a
2680.943368	1.599729555	1	103	5	10	1	n/a	2681.34324	n/a
2682.543134	1.599586592	1	104	5	9	2	n/a	2682.943063	n/a
2684.1429	1.599785918	1	105	5	8	1	n/a	2684.542782	n/a
2685.742614	1.5996787	1	106	5	7	1	n/a	2686.142393	n/a
2687.342433	1.599758792	1	107	5	6	1	n/a	2687.742326	n/a
2688.942202	1.599694492	1	108	5	5	1	n/a	2689.342054	n/a
2690.541962	1.599762065	1	109	5	4	2	n/a	2690.941867	n/a
2692.141733	1.599739084	1	110	5	3	2	n/a	2692.541675	n/a
2693.741495	1.599679202	1	111	5	2	2	n/a	2694.141405	n/a
2695.341275	1.599777492	1	112	5	1	1	n/a	2695.741214	n/a
2696.940913	1.599907845	1	113	3	1	2	n/a	2697.340761	n/a
2698.540809	1.599564092	1	114	3	2	2	n/a	2698.940745	n/a
2700.140509	1.5997149	1	115	3	3	1	n/a	2700.540449	n/a
2701.740174	1.5998886	1	116	3	4	2	n/a	2702.140074	n/a
2703.340111	1.599552792	1	117	3	5	1	n/a	2703.740052	n/a
2704.939654	1.5997964	1	118	3	6	1	n/a	2705.339721	n/a
2706.53958	1.5997891	1	119	3	7	1	n/a	2706.939576	n/a
2708.139388	1.5997042	1	120	3	8	1	n/a	2708.539154	n/a
2709.738964	1.5999426	1	121	3	9	1	n/a	2710.139122	n/a
2711.338911	1.599822745	1	122	3	10	1	n/a	2711.738839	n/a
2712.938666	1.5997782	1	123	3	11	1	n/a	2713.33866	n/a
2714.538427	1.59978	1	124	3	12	1	n/a	2714.938421	n/a
2716.138013	1.5997687	1	125	1	12	2	n/a	2716.538048	n/a
2717.73781	1.5999929	1	126	1	11	2	n/a	2718.137891	n/a
2719.337775	1.599788627	1	127	1	10	1	n/a	2719.73754	n/a
2720.937483	1.59982	1	128	1	9	1	n/a	2721.337497	n/a
2722.537253	1.5995862	1	129	1	8	1	n/a	2722.937257	n/a
2724.137015	1.599844035	1	130	1	7	2	n/a	2724.536898	n/a
2725.736788	1.599853963	1	131	1	6	1	n/a	2726.136805	n/a
2727.336595	1.5997462	1	132	1	5	1	n/a	2727.73649	n/a
2728.936384	1.599720837	1	133	1	4	2	n/a	2729.336268	n/a
2730.536162	1.599600092	1	134	1	3	1	n/a	2730.936095	n/a
2732.135867	1.5997808	1	135	1	2	1	n/a	2732.535804	n/a
2733.735642	1.5997451	1	136	1	1	1	n/a	2734.135449	n/a
2735.335447	1.5997535	1	137	4	1	1	n/a	2735.735376	n/a
2736.935182	1.5997715	1	138	4	2	1	n/a	2737.335173	n/a
2738.534991	1.599739792	1	139	4	3	2	n/a	2738.934679	n/a
2740.13456	1.599986653	1	140	4	4	2	n/a	2740.534722	n/a
2741.734506	1.5997598	1	141	4	5	2	n/a	2742.134429	n/a
2743.334239	1.5997938	1	142	4	6	1	n/a	2743.73422	n/a
2744.934019	1.5997838	1	143	4	7	1	n/a	2745.333951	n/a
2746.533781	1.5996159	1	144	4	8	1	n/a	2746.933771	n/a
2748.133597	1.599733828	1	145	4	9	2	n/a	2748.53349	n/a
2749.733316	1.5997878	1	146	4	10	1	n/a	2750.133175	n/a
2751.332923	1.5999433	1	147	4	11	1	n/a	2751.73301	n/a
2752.932857	1.5995811	1	148	4	12	1	n/a	2753.332793	n/a
2754.532624	1.5997854	1	149	7	13	3	n/a	2754.932544	n/a
2756.132448	1.599725173	1	150	7	13	3	n/a	2756.532331	n/a
2757.732158	1.599835153	1	151	7	13	3	n/a	2758.131969	n/a
2759.331823	1.5998795	1	152	7	13	3	n/a	2759.731871	n/a
