onset	duration	run_number	trial_number	spatial_frequency	michelson_contrast	probe_orientation	response_correctness	probe_time	reaction_time
16297.95446	1.60017117	1	1	7	13	3	n/a	16298.35441	n/a
16299.55468	1.60022892	1	2	7	13	3	n/a	16299.95471	n/a
16301.15492	1.600253169	1	3	7	13	3	n/a	16301.55499	n/a
16302.75519	1.600147906	1	4	7	13	3	n/a	16303.15525	n/a
16304.35536	1.600270305	1	5	7	13	3	n/a	16304.75543	n/a
16305.95567	1.600245977	1	6	7	13	3	n/a	16306.35572	n/a
16307.55592	1.600231676	1	7	7	13	3	n/a	16307.956	n/a
16309.15618	1.600124402	1	8	7	13	3	n/a	16309.55612	n/a
16310.7563	1.600278961	1	9	7	13	3	n/a	16311.15637	n/a
16312.35654	1.600228272	1	10	7	13	3	n/a	16312.75661	n/a
16313.9568	1.600248936	1	11	3	12	2	1	16314.35685	1.004002191
16315.55703	1.600238036	1	12	3	11	1	1	16315.95709	0.5026665706
16317.15728	1.600222608	1	13	3	10	2	0	16317.55736	0.5035390746
16318.75753	1.600223872	1	14	3	9	2	n/a	16319.15758	n/a
16320.35776	1.600244016	1	15	3	8	2	1	16320.75785	0.602599127
16321.95803	1.600259969	1	16	3	7	2	1	16322.35808	0.5029248704
16323.55829	1.600274953	1	17	3	6	2	0	16323.95839	0.2021631655
16325.1586	1.600238572	1	18	3	5	1	1	16325.55867	0.7007875126
16326.75887	1.600106045	1	19	3	4	2	0	16327.15893	0.3038418245
16328.35898	1.60022898	1	20	3	3	1	0	16328.75906	1.10307647
16329.95924	1.600237816	1	21	3	2	2	1	16330.3593	0.8034923105
16331.55948	1.600245585	1	22	3	1	1	0	16331.95955	0.4024364706
16333.15973	1.600220424	1	23	3	1	1	0	16333.55979	0.4023311142
16334.75996	1.600231028	1	24	3	2	1	0	16335.16011	0.6028831331
16336.36021	1.60022288	1	25	3	3	1	n/a	16336.76027	n/a
16337.96046	1.600282593	1	26	3	4	2	n/a	16338.36052	n/a
16339.5607	1.600261129	1	27	3	5	2	n/a	16339.96076	n/a
16341.16099	1.600269213	1	28	3	6	1	n/a	16341.56107	n/a
16342.76127	1.6002501	1	29	3	7	2	n/a	16343.16136	n/a
16344.36153	1.600230624	1	30	3	8	1	n/a	16344.7616	n/a
16345.96165	1.600257837	1	31	3	9	1	n/a	16346.36173	n/a
16347.5619	1.600251193	1	32	3	10	1	1	16347.96195	1.102644123
16349.16215	1.600238684	1	33	3	11	2	n/a	16349.56221	n/a
16350.7624	1.600225364	1	34	3	12	2	1	16351.16247	0.9031433025
16352.36271	1.600168459	1	35	7	13	3	n/a	16352.76264	n/a
16353.96289	1.600235112	1	36	7	13	3	n/a	16354.36297	n/a
16355.56313	1.600248504	1	37	7	13	3	n/a	16355.96321	n/a
16357.16337	1.600220196	1	38	7	13	3	n/a	16357.56344	n/a
16358.76363	1.600243676	1	39	7	13	3	n/a	16359.16369	n/a
16360.3639	1.600289305	1	40	7	13	3	n/a	16360.76395	n/a
16361.96419	1.600265033	1	41	7	13	3	n/a	16362.36424	n/a
16363.56447	1.600128682	1	42	7	13	3	n/a	16363.96452	n/a
16365.1647	1.600127645	1	43	7	13	3	n/a	16365.56464	n/a
16366.76483	1.600227176	1	44	7	13	3	n/a	16367.1649	n/a
16368.3651	1.600226292	1	45	2	12	1	1	16368.76514	0.6025925788
16369.96544	1.600143774	1	46	2	11	1	1	16370.36539	0.6028462587
16371.5656	1.60021628	1	47	2	10	1	1	16371.96564	0.9030335226
16373.16588	1.600173	1	48	2	9	2	1	16373.56587	0.8026427426
16374.76606	1.600248192	1	49	2	8	2	n/a	16375.16614	n/a
16376.36632	1.600312768	1	50	2	7	2	n/a	16376.76636	n/a
16377.96656	1.600228104	1	51	2	6	1	0	16378.36663	0.4032975107
16379.56681	1.600237388	1	52	2	5	2	1	16379.96685	1.003097071
16381.16704	1.600226392	1	53	2	4	2	1	16381.56711	0.7023449667
16382.7673	1.600231889	1	54	2	3	1	1	16383.16736	0.4027218308
16384.36755	1.600291693	1	55	2	2	1	1	16384.76763	0.6018174939
16385.96785	1.600272617	1	56	2	1	1	n/a	16386.36791	n/a
16387.56812	1.6002285	1	57	2	1	2	n/a	16387.96819	n/a
16389.16838	1.600097422	1	58	2	2	1	1	16389.56831	1.102709487
16390.7685	1.60023182	1	59	2	3	2	0	16391.16855	0.9030372149
16392.36875	1.600217452	1	60	2	4	1	0	16392.7688	0.8027529986
16393.96901	1.600220212	1	61	2	5	2	0	16394.36905	0.2031189545
16395.56924	1.600238868	1	62	2	6	1	1	16395.96929	0.7022296387
16397.16949	1.600227932	1	63	2	7	2	1	16397.56955	0.6024462583
16398.76973	1.600231208	1	64	2	8	2	1	16399.16979	0.5026597347
16400.36997	1.600241768	1	65	2	9	2	1	16400.77003	0.5025913025
16401.97023	1.600218607	1	66	2	10	2	1	16402.37039	0.6023623485
16403.57043	1.600273061	1	67	2	11	2	1	16403.97051	0.5026759667
16405.17071	1.600316514	1	68	2	12	1	1	16405.57075	0.5027147587
16406.77094	1.600240448	1	69	7	13	3	n/a	16407.171	n/a
16408.37118	1.600249552	1	70	7	13	3	n/a	16408.77124	n/a
16409.97144	1.600260153	1	71	7	13	3	n/a	16410.3715	n/a
16411.57171	1.600270033	1	72	7	13	3	n/a	16411.9718	n/a
16413.17201	1.600246837	1	73	7	13	3	n/a	16413.57209	n/a
16414.77228	1.600114802	1	74	7	13	3	n/a	16415.17234	n/a
16416.37239	1.6002288	1	75	7	13	3	n/a	16416.77247	n/a
16417.97266	1.600233232	1	76	7	13	3	n/a	16418.37271	n/a
16419.573	1.600113154	1	77	7	13	3	n/a	16419.97296	n/a
16421.17312	1.60024746	1	78	7	13	3	n/a	16421.5732	n/a
16422.77338	1.60025718	1	79	4	12	1	1	16423.17345	0.4023253184
16424.37363	1.600273841	1	80	4	11	1	1	16424.77371	0.4024499506
16425.97392	1.600263317	1	81	4	10	2	1	16426.37399	0.6016697655
16427.57421	1.600253064	1	82	4	9	1	1	16427.97428	0.5008586366
16429.17448	1.600214872	1	83	4	8	2	1	16429.57454	0.5010240524
16430.77472	1.600100673	1	84	4	7	1	1	16431.17464	0.5031469951
16432.37483	1.600201044	1	85	4	6	2	1	16432.77487	0.6030604072
16433.97516	1.600148892	1	86	4	5	1	0	16434.37513	0.6030727149
16435.57534	1.60023008	1	87	4	4	1	0	16435.97543	0.4026952226
16437.1756	1.600259833	1	88	4	3	1	1	16437.57565	0.3024974503
16438.77589	1.600267509	1	89	4	2	2	0	16439.17594	0.4016872974
16440.37617	1.600241648	1	90	4	1	1	1	16440.77623	0.2009230804
16441.97644	1.600077113	1	91	4	1	1	0	16442.37648	0.5005544203
16443.57654	1.600212503	1	92	4	2	2	0	16443.97661	0.7030867466
16445.17681	1.600191032	1	93	4	3	2	1	16445.5769	0.5025800538
16446.77716	1.600100982	1	94	4	4	2	1	16447.17711	0.6031042785
16448.37729	1.600254081	1	95	4	5	2	1	16448.77736	0.7028672865
16449.97765	1.600120262	1	96	4	6	1	1	16450.37762	0.7010810746
16451.57778	1.600226124	1	97	4	7	2	1	16451.97785	0.6023609464
16453.17803	1.600212772	1	98	4	8	2	1	16453.57808	0.5051871545
16454.77829	1.600205788	1	99	4	9	1	1	16455.17843	0.4023135527
16456.37853	1.600212039	1	100	4	10	2	1	16456.7786	0.4031368426
16457.97879	1.600302565	1	101	4	11	1	1	16458.37883	0.4026409785
16459.57902	1.600230433	1	102	4	12	1	1	16459.97907	0.4027186545
16461.17935	1.600102393	1	103	7	13	3	n/a	16461.57931	n/a
16462.77949	1.600248316	1	104	7	13	3	n/a	16463.17952	n/a
16464.37973	1.600225124	1	105	7	13	3	n/a	16464.77979	n/a
16465.98	1.600220392	1	106	7	13	3	n/a	16466.38004	n/a
16467.58024	1.600229972	1	107	7	13	3	n/a	16467.98028	n/a
16469.18048	1.600272305	1	108	7	13	3	n/a	16469.58054	n/a
16470.78077	1.600273685	1	109	7	13	3	n/a	16471.18083	n/a
16472.38105	1.60024872	1	110	7	13	3	n/a	16472.78112	n/a
16473.9813	1.600120214	1	111	7	13	3	n/a	16474.38136	n/a
16475.58145	1.600213896	1	112	7	13	3	n/a	16475.98149	n/a
16477.18168	1.600226488	1	113	1	12	2	1	16477.58174	0.5025746065
16478.78192	1.600248092	1	114	1	11	2	1	16479.182	0.6022249429
16480.38219	1.600194232	1	115	1	10	2	1	16480.78222	0.9028415587
16481.98242	1.600236352	1	116	1	9	1	1	16482.3825	0.9028986986
16483.58267	1.600215479	1	117	1	8	2	1	16483.98272	0.7024252266
16485.18292	1.60023352	1	118	1	7	1	1	16485.58299	0.6021546065
16486.78317	1.600196936	1	119	1	6	1	1	16487.18323	0.6030249662
16488.38341	1.600231988	1	120	1	5	1	0	16488.78346	0.4021007345
16489.98366	1.600229324	1	121	1	4	1	1	16490.3837	0.3025467704
16491.5839	1.600235028	1	122	1	3	2	1	16491.98393	0.2023854988
16493.18413	1.600241768	1	123	1	2	1	1	16493.58428	0.3022109585
16494.78438	1.60022982	1	124	1	1	2	1	16495.18445	0.4023815585
16496.38462	1.60024362	1	125	1	1	1	1	16496.78477	0.6024539548
16497.98486	1.600245348	1	126	1	2	2	1	16498.38495	0.7028568904
16499.58511	1.600219928	1	127	1	3	1	1	16499.98518	0.8028283065
16501.18536	1.600228816	1	128	1	4	2	n/a	16501.58543	n/a
16502.7856	1.600220916	1	129	1	5	2	1	16503.18567	0.7024638741
16504.38584	1.60023042	1	130	1	6	2	0	16504.78591	0.6025515422
16505.98609	1.60022578	1	131	1	7	1	1	16506.38614	0.3023753585
16507.58632	1.600245896	1	132	1	8	1	1	16507.9864	0.7029676422
16509.18658	1.60023592	1	133	1	9	1	1	16509.58663	0.7027263184
16510.78681	1.60025652	1	134	1	10	2	1	16511.18689	0.7025964984
16512.38707	1.600287705	1	135	1	11	1	1	16512.78715	0.7018931219
16513.98738	1.600266497	1	136	1	12	2	1	16514.38743	0.6007961049
16515.58766	1.60012477	1	137	7	13	3	n/a	16515.98771	n/a
16517.18788	1.600151754	1	138	7	13	3	n/a	16517.58795	n/a
16518.78808	1.600280261	1	139	7	13	3	n/a	16519.18814	n/a
16520.38837	1.600238248	1	140	7	13	3	n/a	16520.78843	n/a
16521.9885	1.600251289	1	141	7	13	3	n/a	16522.38856	n/a
16523.58875	1.600227204	1	142	7	13	3	n/a	16523.98881	n/a
16525.18902	1.600207884	1	143	7	13	3	n/a	16525.58907	n/a
16526.78925	1.600242836	1	144	7	13	3	n/a	16527.1893	n/a
16528.3895	1.600234764	1	145	7	13	3	n/a	16528.78955	n/a
16529.98975	1.600227288	1	146	7	13	3	n/a	16530.38979	n/a
16531.58998	1.600250988	1	147	5	12	2	1	16531.99005	0.5021505387
16533.19027	1.600187156	1	148	5	11	2	1	16533.59029	0.5028882667
16534.79049	1.60025492	1	149	5	10	1	1	16535.19055	0.4027509904
16536.39076	1.600271677	1	150	5	9	1	0	16536.79083	0.3019595578
16537.99104	1.600259129	1	151	5	8	1	1	16538.39113	0.301676293
16539.59131	1.600106214	1	152	5	7	2	n/a	16539.99138	n/a
16541.19144	1.600203908	1	153	5	6	1	n/a	16541.59152	n/a
16542.79167	1.60036429	1	154	5	5	2	n/a	16543.19176	n/a
16544.39194	1.600226604	1	155	5	4	2	n/a	16544.79198	n/a
16545.99218	1.600246832	1	156	5	3	2	0	16546.39225	0.6024056067
16547.59244	1.60023328	1	157	5	2	1	0	16547.99251	0.6012206266
16549.19269	1.600209723	1	158	5	1	1	1	16549.5927	0.6029088431
16550.79292	1.600222716	1	159	5	1	1	n/a	16551.19298	n/a
16552.39316	1.600247985	1	160	5	2	2	n/a	16552.79327	n/a
16553.99344	1.600284637	1	161	5	3	1	n/a	16554.39352	n/a
16555.59373	1.600254809	1	162	5	4	2	0	16555.99378	1.000688517
16557.19399	1.600100182	1	163	5	5	1	n/a	16557.59407	n/a
16558.79425	1.600102709	1	164	5	6	1	0	16559.19417	0.502960151
16560.39437	1.600234356	1	165	5	7	1	1	16560.7944	0.6027692914
16561.99461	1.60024066	1	166	5	8	1	1	16562.39469	0.8030887184
16563.59487	1.60021652	1	167	5	9	2	1	16563.99494	0.6026379023
16565.19511	1.60023976	1	168	5	10	2	1	16565.59523	0.5023381974
16566.79547	1.600112214	1	169	5	11	2	1	16567.19542	0.5027906907
16568.39559	1.600281561	1	170	5	12	1	1	16568.79567	0.5028252627
16569.99585	1.600224524	1	171	7	13	3	n/a	16570.39591	n/a
16571.5961	1.600220888	1	172	7	13	3	n/a	16571.99613	n/a
16573.19634	1.6002572	1	173	7	13	3	n/a	16573.59641	n/a
16574.79664	1.600266921	1	174	7	13	3	n/a	16575.19669	n/a
16576.3969	1.600259652	1	175	7	13	3	n/a	16576.797	n/a
16577.99717	1.600107781	1	176	7	13	3	n/a	16578.39712	n/a
16579.59729	1.600244684	1	177	7	13	3	n/a	16579.99734	n/a
16581.19754	1.600238384	1	178	7	13	3	n/a	16581.59761	n/a
16582.79784	1.600179976	1	179	7	13	3	n/a	16583.19785	n/a
16584.39804	1.600232368	1	180	7	13	3	n/a	16584.79812	n/a
16585.99831	1.600223004	1	181	6	12	2	1	16586.39837	0.5026695028
16587.59855	1.600231344	1	182	6	11	2	1	16587.9986	0.4029420065
16589.19878	1.600216288	1	183	6	10	1	1	16589.59883	0.4028561907
16590.79902	1.600237908	1	184	6	9	2	0	16591.19908	0.1027206345
16592.39928	1.600229664	1	185	6	8	1	0	16592.79941	0.3027615331
16593.99952	1.600217536	1	186	6	7	1	1	16594.39957	0.3026994706
16595.59977	1.600265113	1	187	6	6	1	0	16595.99983	0.5026064387
16597.20001	1.600257832	1	188	6	5	1	1	16597.60009	0.6024254583
16598.8003	1.600275921	1	189	6	4	1	0	16599.20036	0.6010612254
16600.40059	1.600241208	1	190	6	3	1	1	16600.80066	0.5005197725
16602.00085	1.60012385	1	191	6	2	1	1	16602.40079	0.602646179
16603.60096	1.600246624	1	192	6	1	1	1	16604.00103	0.7027606067
16605.20121	1.60022916	1	193	6	1	2	0	16605.60128	0.4023983785
16606.80146	1.600232288	1	194	6	2	2	0	16607.20153	0.5027393426
16608.40172	1.60023976	1	195	6	3	1	1	16608.80176	0.5026511226
16610.00198	1.600203255	1	196	6	4	1	1	16610.402	0.6021501627
16611.60221	1.600205692	1	197	6	5	1	0	16612.00226	0.9026452946
16613.20246	1.60020614	1	198	6	6	2	1	16613.6025	0.6022824585
16614.80268	1.600225716	1	199	6	7	1	1	16615.20273	0.402723707
16616.40293	1.600219304	1	200	6	8	1	1	16616.803	0.5026640466
16618.00319	1.600221812	1	201	6	9	2	0	16618.40326	0.5026773503
16619.60342	1.600231621	1	202	6	10	1	1	16620.00349	0.5023821746
16621.20367	1.600233404	1	203	6	11	1	1	16621.60374	0.6024133461
16622.80391	1.600254588	1	204	6	12	1	1	16623.20397	0.5025004746
16624.40417	1.600283309	1	205	7	13	3	n/a	16624.80426	n/a
16626.00446	1.600271161	1	206	7	13	3	n/a	16626.40455	n/a
16627.60475	1.600233348	1	207	7	13	3	n/a	16628.00482	n/a
16629.20488	1.600238912	1	208	7	13	3	n/a	16629.60493	n/a
16630.80514	1.60021514	1	209	7	13	3	n/a	16631.20517	n/a
16632.40536	1.600242056	1	210	7	13	3	n/a	16632.80541	n/a
16634.00561	1.600206968	1	211	7	13	3	n/a	16634.40566	n/a
16635.60585	1.600242596	1	212	7	13	3	n/a	16636.00591	n/a
16637.20611	1.600238456	1	213	7	13	3	n/a	16637.60616	n/a
16638.80637	1.600271577	1	214	7	13	3	n/a	16639.20645	n/a
