onset	duration	run_number	trial_number	spatial_frequency	michelson_contrast	probe_orientation	response_correctness	probe_time	reaction_time
21415.13483	1.600135058	9	1	7	13	3	n/a	21415.53478	n/a
21416.73496	1.600236694	9	2	7	13	3	n/a	21417.13504	n/a
21418.33521	1.600282464	9	3	7	13	3	n/a	21418.73529	n/a
21419.9355	1.600274936	9	4	7	13	3	n/a	21420.33556	n/a
21421.53579	1.600243438	9	5	7	13	3	n/a	21421.93587	n/a
21423.13604	1.600164445	9	6	7	13	3	n/a	21423.536	n/a
21424.73623	1.600273587	9	7	7	13	3	n/a	21425.13629	n/a
21426.33651	1.600245695	9	8	7	13	3	n/a	21426.73657	n/a
21427.93677	1.600120852	9	9	7	13	3	n/a	21428.33683	n/a
21429.53692	1.600228486	9	10	7	13	3	n/a	21429.93698	n/a
21431.13716	1.600224949	9	11	5	12	1	1	21431.53722	0.4034400541
21432.73741	1.600240844	9	12	5	11	2	1	21433.13745	0.5029721112
21434.33764	1.600234592	9	13	5	10	2	1	21434.7377	0.5031008096
21435.93788	1.60025448	9	14	5	9	2	1	21436.33803	0.6025644773
21437.53814	1.600230009	9	15	5	8	1	0	21437.9382	0.7030598112
21439.13837	1.600286797	9	16	5	7	2	1	21439.53845	0.6047512572
21440.73863	1.600228008	9	17	5	6	1	1	21441.13868	0.5031730374
21442.33887	1.60028277	9	18	5	5	2	1	21442.73895	0.502053984
21443.93916	1.600270039	9	19	5	4	1	1	21444.33926	0.3022095679
21445.53946	1.600237268	9	20	5	3	2	1	21445.93953	0.2013211057
21447.13972	1.600091906	9	21	5	2	1	1	21447.53964	0.3034219247
21448.73983	1.600233165	9	22	5	1	1	0	21449.13991	0.402915308
21450.34006	1.600266397	9	23	4	1	2	0	21450.74015	0.2047146478
21451.94033	1.600225158	9	24	4	2	1	1	21452.34038	0.203108862
21453.54062	1.600188732	9	25	4	3	1	1	21453.94063	0.102487685
21455.14082	1.600220371	9	26	4	4	1	1	21455.54088	0.1020927112
21456.74106	1.600244775	9	27	4	5	2	1	21457.14112	0.4026059881
21458.3413	1.600237758	9	28	4	6	1	1	21458.74136	0.5016659421
21459.94156	1.600284741	9	29	4	7	1	1	21460.34163	0.6021969824
21461.54186	1.600267859	9	30	4	8	2	1	21461.94191	0.6012360496
21463.14214	1.600225315	9	31	4	9	2	1	21463.5422	0.6007409104
21464.74239	1.60010981	9	32	4	10	2	1	21465.14245	0.5010197533
21466.3425	1.600234248	9	33	4	11	1	1	21466.74257	0.4031467677
21467.94275	1.600225868	9	34	4	12	2	1	21468.34283	0.5026701661
21469.54301	1.600222428	9	35	7	13	3	n/a	21469.94307	n/a
21471.14325	1.600233895	9	36	7	13	3	n/a	21471.54332	n/a
21472.74352	1.600212518	9	37	7	13	3	n/a	21473.14356	n/a
21474.34375	1.600233413	9	38	7	13	3	n/a	21474.74382	n/a
21475.944	1.600222925	9	39	7	13	3	n/a	21476.344	n/a
21477.54435	1.600125684	9	40	7	13	3	n/a	21477.94426	n/a
21479.14446	1.600262196	9	41	7	13	3	n/a	21479.54454	n/a
21480.74476	1.600166339	9	42	7	13	3	n/a	21481.14482	n/a
21482.34504	1.600260276	9	43	7	13	3	n/a	21482.74513	n/a
21483.94532	1.600080135	9	44	7	13	3	n/a	21484.34538	n/a
21485.54543	1.600236198	9	45	3	12	1	1	21485.94562	0.4029415152
21487.14567	1.60024171	9	46	3	11	1	1	21487.54573	0.4025676907
21488.74593	1.600246391	9	47	3	10	2	1	21489.14599	0.4028418541
21490.34616	1.600230164	9	48	3	9	1	1	21490.74624	0.3024923557
21491.94643	1.600229148	9	49	3	8	2	1	21492.34648	0.4025309127
21493.54667	1.600247374	9	50	3	7	2	0	21493.94675	0.4022209698
21495.1469	1.600237318	9	51	3	6	1	1	21495.54699	0.4027070683
21496.74717	1.60022464	9	52	3	5	1	0	21497.14724	0.502508062
21498.34741	1.600227849	9	53	3	4	1	1	21498.74747	0.4024853897
21499.94766	1.600212923	9	54	3	3	1	1	21500.34772	0.5024957247
21501.5479	1.600222697	9	55	3	2	1	0	21501.94796	0.4028037127
21503.14815	1.60024125	9	56	3	1	2	1	21503.54829	0.502366035
21504.74841	1.600278515	9	57	2	1	1	1	21505.14848	0.4014339553
21506.34871	1.600243347	9	58	2	2	1	1	21506.74877	0.3006581224
21507.94898	1.600123004	9	59	2	3	1	0	21508.34904	0.3014645779
21509.54911	1.600232783	9	60	2	4	1	1	21509.94916	0.3025821588
21511.14935	1.600230864	9	61	2	5	1	1	21511.5494	0.5028073834
21512.74959	1.600233282	9	62	2	6	1	1	21513.14966	0.5025386358
21514.34984	1.600224894	9	63	2	7	2	1	21514.7499	0.6028293064
21515.95008	1.600261401	9	64	2	8	1	1	21516.35016	0.4009933279
21517.55034	1.600213051	9	65	2	9	1	1	21517.9504	0.5024350405
21519.15059	1.600231546	9	66	2	10	1	1	21519.55064	0.3023901468
21520.75091	1.600137093	9	67	2	11	2	1	21521.15088	0.5028133159
21522.35105	1.600246772	9	68	2	12	2	0	21522.75111	0.4029015881
21523.95132	1.600229418	9	69	7	13	3	n/a	21524.35137	n/a
21525.55155	1.600229368	9	70	7	13	3	n/a	21525.95161	n/a
21527.15181	1.600238979	9	71	7	13	3	n/a	21527.55187	n/a
21528.75204	1.600243323	9	72	7	13	3	n/a	21529.15211	n/a
21530.35229	1.600266887	9	73	7	13	3	n/a	21530.75237	n/a
21531.95259	1.600270638	9	74	7	13	3	n/a	21532.35264	n/a
21533.55286	1.600123207	9	75	7	13	3	n/a	21533.95294	n/a
21535.15312	1.600124398	9	76	7	13	3	n/a	21535.55318	n/a
21536.75327	1.60021061	9	77	7	13	3	n/a	21537.15332	n/a
21538.3535	1.600219494	9	78	7	13	3	n/a	21538.75357	n/a
21539.95361	1.600361919	9	79	6	12	2	1	21540.35381	0.6030314866
21541.55399	1.600242187	9	80	6	11	1	0	21541.95405	0.602829408
21543.15424	1.60022166	9	81	6	10	2	1	21543.5543	0.5027254253
21544.75449	1.600259584	9	82	6	9	2	0	21545.15455	0.2020673332
21546.35478	1.600279462	9	83	6	8	2	n/a	21546.75485	n/a
21547.95507	1.600239356	9	84	6	7	1	n/a	21548.35513	n/a
21549.55531	1.600231083	9	85	6	6	1	0	21549.95537	0.1009156962
21551.15556	1.600236685	9	86	6	5	1	1	21551.55548	0.3006974598
21552.75566	1.600242082	9	87	6	4	1	0	21553.15573	0.3029091938
21554.35592	1.600232968	9	88	6	3	2	0	21554.75598	0.4029540771
21555.95619	1.600230838	9	89	6	2	1	0	21556.35634	0.5024686685
21557.55644	1.600288087	9	90	6	1	2	1	21557.95653	0.4022125872
21559.15673	1.600271485	9	91	6	1	1	1	21559.5568	0.3010318543
21560.75702	1.600231792	9	92	6	2	2	1	21561.1571	0.4005146779
21562.35727	1.600096929	9	93	6	3	2	n/a	21562.75732	n/a
21563.9574	1.600208594	9	94	6	4	2	0	21564.35748	0.3027435452
21565.55761	1.600246291	9	95	6	5	2	0	21565.95769	0.3029482001
21567.15788	1.600247863	9	96	6	6	2	0	21567.55794	0.3030934247
21568.75813	1.600244592	9	97	6	7	1	1	21569.15821	0.3018929913
21570.35839	1.600216598	9	98	6	8	1	0	21570.75855	0.2009906549
21571.95864	1.600212802	9	99	6	9	2	0	21572.35869	0.2023909096
21573.55893	1.600183193	9	100	6	10	2	0	21573.95893	0.3027087929
21575.15913	1.600324244	9	101	6	11	1	1	21575.55918	0.5025041714
21576.75933	1.600372159	9	102	6	12	1	0	21577.15943	0.4026479468
21578.35961	1.600241882	9	103	7	13	3	n/a	21578.75979	n/a
21579.95984	1.600237266	9	104	7	13	3	n/a	21580.36	n/a
21581.56009	1.600237897	9	105	7	13	3	n/a	21581.96015	n/a
21583.16034	1.600222669	9	106	7	13	3	n/a	21583.56039	n/a
21584.76059	1.600204933	9	107	7	13	3	n/a	21585.16065	n/a
21586.36083	1.600225154	9	108	7	13	3	n/a	21586.76086	n/a
21587.96107	1.600235056	9	109	7	13	3	n/a	21588.36113	n/a
21589.56134	1.600281013	9	110	7	13	3	n/a	21589.96141	n/a
21591.16163	1.600280349	9	111	7	13	3	n/a	21591.56169	n/a
21592.76191	1.600111606	9	112	7	13	3	n/a	21593.16196	n/a
21594.36204	1.600223551	9	113	2	12	1	1	21594.76209	0.5026796127
21595.96227	1.600241749	9	114	2	11	1	0	21596.36235	0.5026902771
21597.56252	1.600242501	9	115	2	10	1	1	21597.96258	0.4024530279
21599.16276	1.600243586	9	116	2	9	2	1	21599.56283	0.5024813897
21600.76301	1.600221832	9	117	2	8	1	1	21601.1631	0.5024952903
21602.36327	1.60021736	9	118	2	7	2	1	21602.76333	0.5027872405
21603.9635	1.600235394	9	119	2	6	1	1	21604.36357	0.5028564222
21605.56375	1.600245508	9	120	2	5	1	1	21605.96381	0.5021564866
21607.16399	1.600238259	9	121	2	4	1	1	21607.56405	0.5030299405
21608.76424	1.600238253	9	122	2	3	2	1	21609.1643	0.4021004698
21610.37292	1.600141376	9	123	2	2	2	1	21610.77287	0.5010759405
21611.97308	1.600225352	9	124	2	1	1	0	21612.37314	0.5026186856
21613.57333	1.600241986	9	125	3	1	2	0	21613.97338	0.5020926348
21615.17359	1.600263838	9	126	3	2	2	1	21615.57372	0.4017044518
21616.77389	1.600245907	9	127	3	3	2	0	21617.17394	0.4005751272
21618.37414	1.600220065	9	128	3	4	2	0	21618.77422	0.4005656041
21619.97431	1.600270461	9	129	3	5	2	1	21620.37439	0.5016269228
21621.57461	1.600257875	9	130	3	6	1	1	21621.97467	0.5012022407
21623.17488	1.600210872	9	131	3	7	2	1	21623.57494	0.4009970366
21624.775	1.600241918	9	132	3	8	1	1	21625.17517	0.3025445858
21626.37527	1.600208441	9	133	3	9	2	1	21626.77533	0.5025110929
21627.97551	1.60022158	9	134	3	10	2	1	21628.37558	0.5024909285
21629.57576	1.600227139	9	135	3	11	2	1	21629.97582	0.5024989494
21631.17598	1.600252071	9	136	3	12	1	0	21631.57606	0.4036908651
21632.7763	1.600126616	9	137	7	13	3	n/a	21633.1763	n/a
21634.37648	1.600235621	9	138	7	13	3	n/a	21634.77666	n/a
21635.97673	1.600227673	9	139	7	13	3	n/a	21636.37679	n/a
21637.57697	1.600276764	9	140	7	13	3	n/a	21637.97705	n/a
21639.17726	1.600279762	9	141	7	13	3	n/a	21639.57734	n/a
21640.77756	1.60024244	9	142	7	13	3	n/a	21641.17763	n/a
21642.37782	1.600091429	9	143	7	13	3	n/a	21642.77787	n/a
21643.97794	1.60022584	9	144	7	13	3	n/a	21644.37801	n/a
21645.57817	1.600315669	9	145	7	13	3	n/a	21645.97825	n/a
21647.17841	1.60023382	9	146	7	13	3	n/a	21647.57849	n/a
21648.77868	1.600224028	9	147	4	12	1	1	21649.17873	0.4029210897
21650.37892	1.600213179	9	148	4	11	2	1	21650.77899	0.5028041913
21651.97917	1.600236083	9	149	4	10	1	1	21652.37923	0.4026109929
21653.5794	1.600237494	9	150	4	9	1	1	21653.97948	0.4027906301
21655.17971	1.60022579	9	151	4	8	1	1	21655.57973	0.5022476285
21656.77994	1.600266338	9	152	4	7	1	1	21657.18005	0.5015964827
21658.38025	1.600229225	9	153	4	6	2	1	21658.78031	0.6005581795
21659.98049	1.600109592	9	154	4	5	1	1	21660.38055	0.5028489811
21661.58061	1.600257221	9	155	4	4	2	0	21661.98068	0.4029522541
21663.18097	1.600118656	9	156	4	3	1	0	21663.58092	0.4030452525
21664.7811	1.600238492	9	157	4	2	2	0	21665.18116	0.5029236342
21666.38136	1.600228313	9	158	4	1	1	1	21666.78142	0.4025210698
21667.98161	1.600211156	9	159	1	1	1	0	21668.38171	1.002897088
21669.58186	1.600208014	9	160	1	2	2	0	21669.98191	1.002905283
21671.18209	1.600265495	9	161	1	3	2	0	21671.58215	1.101798713
21672.78234	1.60024453	9	162	1	4	2	0	21673.18239	1.102256039
21674.38258	1.600255404	9	163	1	5	2	n/a	21674.78263	n/a
21675.98284	1.600286116	9	164	1	6	1	0	21676.38292	0.8018388689
21677.58313	1.600268338	9	165	1	7	1	1	21677.98321	0.6009472313
21679.18342	1.600231023	9	166	1	8	1	1	21679.58348	0.6011377795
21680.78353	1.600238598	9	167	1	9	1	1	21681.18359	0.5032290017
21682.38378	1.600232754	9	168	1	10	1	0	21682.78385	0.4026571986
21683.98404	1.600218551	9	169	1	11	1	0	21684.38411	0.4028534326
21685.5843	1.600218509	9	170	1	12	2	0	21685.98435	0.9027020374
21687.18453	1.600237632	9	171	7	13	3	n/a	21687.58461	n/a
21688.78479	1.600221282	9	172	7	13	3	n/a	21689.18484	n/a
21690.38503	1.60021852	9	173	7	13	3	n/a	21690.78509	n/a
21691.98527	1.600228103	9	174	7	13	3	n/a	21692.38532	n/a
21693.58551	1.600231191	9	175	7	13	3	n/a	21693.98556	n/a
21695.18576	1.600237302	9	176	7	13	3	n/a	21695.58582	n/a
21696.786	1.600193944	9	177	7	13	3	n/a	21697.18607	n/a
21698.38625	1.600331082	9	178	7	13	3	n/a	21698.78632	n/a
21699.98651	1.600284465	9	179	7	13	3	n/a	21700.3866	n/a
21701.58679	1.600283218	9	180	7	13	3	n/a	21701.98688	n/a
21703.18709	1.600104083	9	181	1	12	2	1	21703.58715	0.5010414073
21704.78722	1.600236372	9	182	1	11	1	1	21705.18727	0.402915308
21706.38746	1.600234909	9	183	1	10	2	1	21706.7875	0.5029606525
21707.9877	1.600231148	9	184	1	9	2	1	21708.38777	0.5025606112
21709.58796	1.60022588	9	185	1	8	2	1	21709.98802	0.6026332866
21711.18817	1.600259989	9	186	1	7	1	1	21711.58825	0.5027743683
21712.78843	1.600225702	9	187	1	6	1	0	21713.18851	0.4027747667
21714.38869	1.600214148	9	188	1	5	1	1	21714.78874	0.5027013635
21715.98893	1.600212079	9	189	1	4	1	1	21716.38901	0.4028236578
21717.58917	1.600242303	9	190	1	3	2	0	21717.98924	0.3026753698
21719.18941	1.600236556	9	191	1	2	2	1	21719.58948	0.2026654944
21720.78957	1.600320224	9	192	1	1	2	n/a	21721.18973	n/a
21722.3899	1.600239402	9	193	5	1	2	0	21722.78997	0.3010020604
21723.99015	1.600238051	9	194	5	2	2	0	21724.3902	0.1025134405
21725.59041	1.600242362	9	195	5	3	1	0	21725.99045	0.1024837714
21727.19074	1.600237165	9	196	5	4	2	0	21727.59077	0.4017635616
21728.79093	1.600288081	9	197	5	5	2	1	21729.19104	0.4009512256
21730.39123	1.600136287	9	198	5	6	1	1	21730.79118	0.3025222494
21731.99137	1.600241406	9	199	5	7	1	0	21732.39141	0.3029682342
21733.59161	1.600232992	9	200	5	8	1	1	21733.99167	0.302911631
21735.19184	1.600242274	9	201	5	9	2	0	21735.59191	0.5031971913
21736.79208	1.600239756	9	202	5	10	1	0	21737.19213	0.3029480692
21738.39243	1.600159392	9	203	5	11	1	1	21738.7924	0.5028407143
21739.9926	1.60026377	9	204	5	12	1	1	21740.39267	0.5031251992
21741.59288	1.600280636	9	205	7	13	3	n/a	21741.99298	n/a
21743.19316	1.600256643	9	206	7	13	3	n/a	21743.59325	n/a
21744.79341	1.60022906	9	207	7	13	3	n/a	21745.19349	n/a
21746.39366	1.600107359	9	208	7	13	3	n/a	21746.79371	n/a
21747.99392	1.600126093	9	209	7	13	3	n/a	21748.39384	n/a
21749.59403	1.608583709	9	210	7	13	3	n/a	21749.99409	n/a
21751.20265	1.600222823	9	211	7	13	3	n/a	21751.60269	n/a
21752.80287	1.600241368	9	212	7	13	3	n/a	21753.20296	n/a
21754.40313	1.600224415	9	213	7	13	3	n/a	21754.80326	n/a
21756.00337	1.600221805	9	214	7	13	3	n/a	21756.40343	n/a
