onset	duration	run_number	trial_number	spatial_frequency	michelson_contrast	probe_orientation	response_correctness	probe_time	reaction_time
8005.905899	1.5999266	4	1	7	13	3	n/a	8006.306025	n/a
8007.505669	1.5999518	4	2	7	13	3	n/a	8007.905609	n/a
8009.105597	1.5997738	4	3	7	13	3	n/a	8009.505574	n/a
8010.705371	1.5997674	4	4	7	13	3	n/a	8011.105174	n/a
8012.305124	1.5997942	4	5	3	12	1	1	8012.705077	0.4015501
8013.904886	1.5998001	4	6	3	11	2	1	8014.304848	0.3012959
8015.504672	1.5997717	4	7	3	10	2	1	8015.904606	0.4011881
8017.104435	1.5997678	4	8	3	9	1	1	8017.504392	0.6012234
8018.704193	1.5997888	4	9	3	8	2	1	8019.104148	0.4028251
8020.303959	1.5997843	4	10	3	7	1	1	8020.703901	0.5014359
8021.903731	1.5997815	4	11	3	6	2	1	8022.303687	0.5010062
8023.503502	1.5997899	4	12	3	5	2	1	8023.903432	0.7047341
8025.103266	1.5997792	4	13	3	4	2	1	8025.503252	0.9007885435
8026.703028	1.5997752	4	14	3	3	1	0	8027.102971	0.7010761
8028.302798	1.599786	4	15	3	2	1	1	8028.702756	0.7010095
8029.90256	1.599869482	4	16	3	1	1	0	8030.302467	0.6005964
8031.502175	1.5997912	4	17	4	1	1	0	8031.902295	0.6006864
8033.10192	1.5999478	4	18	4	2	1	0	8033.501887	0.6007363
8034.701908	1.599569144	4	19	4	3	2	1	8035.101636	0.600276
8036.301464	1.5999609	4	20	4	4	2	1	8036.701586	0.5006327
8037.901413	1.5997591	4	21	4	5	1	0	8038.301319	0.5011844
8039.501167	1.5997842	4	22	4	6	1	0	8039.901121	0.500563
8041.100973	1.599740822	4	23	4	7	1	1	8041.500827	0.604607
8042.700703	1.5997342	4	24	4	8	1	1	8043.10065	0.500725
8044.300473	1.5997752	4	25	4	9	1	1	8044.700424	0.5005142
8045.900231	1.5997615	4	26	4	10	1	1	8046.300187	0.4005296
8047.499975	1.5997972	4	27	4	11	2	1	8047.899934	0.4006532
8049.099825	1.599709209	4	28	4	12	2	1	8049.499691	0.5005468
8050.699528	1.5997729	4	29	6	12	2	0	8051.099455	0.5010966
8052.299285	1.5997798	4	30	6	11	1	1	8052.699215	0.5005587
8053.89905	1.5997869	4	31	6	10	1	1	8054.299012	0.5004788
8055.498827	1.5997721	4	32	6	9	2	0	8055.89877	0.5005844
8057.098584	1.5997705	4	33	6	8	2	1	8057.498519	0.5005108
8058.69836	1.5997573	4	34	6	7	2	0	8059.098184	0.5008079
8060.298134	1.5997859	4	35	6	6	2	0	8060.698076	0.4007561
8061.897894	1.5997947	4	36	6	5	1	0	8062.297851	0.5005304
8063.497685	1.5996316	4	37	6	4	2	0	8063.897603	0.4013592
8065.097271	1.5997661	4	38	6	3	1	0	8065.497356	0.4001991
8066.697014	1.5997576	4	39	6	2	1	1	8067.096995	0.4002923
8068.296802	1.5999502	4	40	6	1	1	0	8068.696914	0.500592
8069.896747	1.5996878	4	41	1	1	2	0	8070.296686	0.600584
8071.496473	1.5997925	4	42	1	2	1	0	8071.896454	0.7006339
8073.096133	1.5999305	4	43	1	3	1	0	8073.496224	0.7005562
8074.696045	1.5997831	4	44	1	4	2	0	8075.09592	0.8006011
8076.295803	1.5997934	4	45	1	5	2	1	8076.69575	0.7005605
8077.89554	1.5998259	4	46	1	6	2	1	8078.29537	0.7006906
8079.495342	1.5997808	4	47	1	7	2	1	8079.895282	0.6005601
8081.095172	1.5997439	4	48	1	8	1	1	8081.495059	0.5005749
8082.694874	1.5997843	4	49	1	9	2	1	8083.094833	0.5006286
8084.294652	1.5996311	4	50	1	10	2	1	8084.694599	0.6005577
8085.894398	1.5998023	4	51	1	11	2	1	8086.294361	0.6000801
8087.494182	1.5997816	4	52	1	12	1	1	8087.89412	0.5005348
8089.093941	1.5997835	4	53	4	12	2	1	8089.493898	0.5005656
8090.693762	1.599773174	4	54	4	11	2	1	8091.093646	0.600575
8092.293491	1.5997368	4	55	4	10	1	1	8092.693476	0.7004928524
8093.893228	1.6081325	4	56	4	9	2	1	8094.293196	0.6007402
8095.501354	1.5997751	4	57	4	8	1	1	8095.901291	0.6005624
8097.101132	1.5997562	4	58	4	7	2	1	8097.50109	0.7005036
8098.700862	1.599846882	4	59	4	6	1	1	8099.100805	0.8005239
8100.3007	1.599721487	4	60	4	5	1	1	8100.700571	0.800546
8101.900461	1.5997114	4	61	4	4	1	1	8102.300327	0.6005741
8103.50017	1.5997842	4	62	4	3	1	1	8103.90007	0.7005815
8105.099732	1.5999777	4	63	4	2	1	1	8105.499868	0.600588
8106.699705	1.5997747	4	64	4	1	2	0	8107.09964	0.6001885
8108.299471	1.5996551	4	65	6	1	2	0	8108.699237	0.5004153
8109.899244	1.599789	4	66	6	2	2	0	8110.299183	0.5006045
8111.499015	1.5997886	4	67	6	3	1	0	8111.89882	0.5007187
8113.098783	1.5997729	4	68	6	4	2	1	8113.49873	0.400577
8114.698556	1.5997758	4	69	6	5	2	1	8115.098533	0.7004890435
8116.298324	1.5997697	4	70	6	6	2	1	8116.698261	0.6005614
8117.898098	1.5997785	4	71	6	7	1	0	8118.298028	0.6006385
8119.497846	1.5997991	4	72	6	8	1	0	8119.897792	0.600603
8121.097627	1.5997491	4	73	6	9	2	0	8121.497546	0.6005851
8122.697393	1.5997836	4	74	6	10	1	0	8123.097343	0.6005541
8124.297069	1.5998571	4	75	6	11	1	1	8124.697115	0.5005696
8125.896912	1.5997901	4	76	6	12	2	1	8126.296876	0.6005319
8127.49667	1.5998028	4	77	1	12	2	1	8127.896634	0.5006172
8129.096482	1.5997579	4	78	1	11	2	1	8129.496388	0.500598
8130.696221	1.5997949	4	79	1	10	2	1	8131.096156	0.6005747
8132.295994	1.5996761	4	80	1	9	1	1	8132.695916	0.6005776
8133.895764	1.5997796	4	81	1	8	1	1	8134.295739	0.5005172218
8135.495523	1.5997925	4	82	1	7	2	1	8135.895452	0.5007129
8137.095229	1.599884578	4	83	1	6	1	1	8137.495225	0.5006036
8138.695052	1.5997909	4	84	1	5	2	1	8139.095005	0.6005628
8140.294825	1.5997797	4	85	1	4	2	1	8140.694768	0.6005859
8141.894592	1.5997761	4	86	1	3	2	1	8142.294546	0.6005512
8143.49433	1.5998121	4	87	1	2	2	1	8143.894298	0.5005791
8145.094116	1.5997555	4	88	1	1	2	1	8145.494011	0.5008505
8146.693899	1.5997383	4	89	2	1	2	1	8147.093829	0.6005766
8148.293633	1.5997833	4	90	2	2	1	0	8148.693588	0.6005391
8149.893408	1.5997884	4	91	2	3	1	0	8150.293344	0.6005915
8151.493196	1.5997631	4	92	2	4	2	1	8151.892995	0.6006905
8153.092936	1.599836	4	93	2	5	2	1	8153.492876	0.6005531
8154.692715	1.5997741	4	94	2	6	1	1	8155.092649	0.5005755
8156.292469	1.5997922	4	95	2	7	2	1	8156.692247	0.50074
8157.892244	1.5998016	4	96	2	8	1	1	8158.292181	0.5005714
8159.492031	1.599774	4	97	2	9	2	1	8159.891965	0.5007242
8161.091799	1.5997772	4	98	2	10	2	1	8161.491723	0.5005615
8162.691565	1.599773	4	99	2	11	1	1	8163.0915	0.4005761
8164.291171	1.599938	4	100	2	12	1	0	8164.691281	0.4005751
8165.891091	1.5997965	4	101	2	12	1	1	8166.291032	0.4005838
8167.490864	1.5997811	4	102	2	11	1	1	8167.890808	0.6005544
8169.090626	1.599844448	4	103	2	10	1	1	8169.490571	0.5005768
8170.690276	1.5999157	4	104	2	9	2	1	8171.09035	0.5005764
8172.290166	1.5997993	4	105	2	8	1	1	8172.690121	0.7005045
8173.889911	1.5998022	4	106	2	7	2	1	8174.289873	0.6005952
8175.489706	1.5997413	4	107	2	6	2	1	8175.889646	0.5005494
8177.089337	1.59991	4	108	2	5	2	1	8177.489427	0.8005243
8178.689243	1.599814	4	109	2	4	1	0	8179.089178	0.5005633
8180.289009	1.5997071	4	110	2	3	2	1	8180.688793	0.500738
8181.888737	1.5998223	4	111	2	2	1	0	8182.288716	0.4006484
8183.488545	1.5997387	4	112	2	1	2	1	8183.888476	0.6002721
8185.088296	1.5997617	4	113	3	1	1	0	8185.488219	0.5006126
8186.688034	1.5998226	4	114	3	2	1	0	8187.087981	0.4006051
8188.287844	1.599786	4	115	3	3	1	0	8188.687785	0.8005
8189.887581	1.5997724	4	116	3	4	2	1	8190.287564	0.6004936
8191.487403	1.5997471	4	117	3	5	1	0	8191.887369	0.4004828218
8193.087147	1.5997741	4	118	3	6	1	1	8193.48709	0.2006346
8194.686916	1.5997788	4	119	3	7	2	1	8195.086699	0.3007862
8196.286673	1.5996826	4	120	3	8	1	1	8196.686603	0.5005914
8197.886433	1.5997785	4	121	3	9	2	1	8198.286347	0.5005996
8199.486192	1.5997727	4	122	3	10	1	1	8199.886139	0.6005366
8201.085966	1.599725	4	123	3	11	2	1	8201.485907	0.4006066
8202.685729	1.5997801	4	124	3	12	1	1	8203.085668	0.4005757
8204.285482	1.5997873	4	125	5	12	2	1	8204.685284	0.5007206
8205.885258	1.5998286	4	126	5	11	2	1	8206.285262	0.500508
8207.485022	1.5998065	4	127	5	10	2	1	8207.884968	0.5005913
8209.084819	1.599783	4	128	5	9	2	1	8209.484757	0.5005499
8210.684621	1.599736222	4	129	5	8	1	1	8211.084563	0.8004536218
8212.28436	1.5997166	4	130	5	7	2	0	8212.684293	0.6005517
8213.884104	1.5997812	4	131	5	6	2	0	8214.284055	0.6006438
8215.483874	1.5997807	4	132	5	5	2	0	8215.883681	0.5006968
8217.083659	1.5997683	4	133	5	4	1	1	8217.483599	0.5005603
8218.683417	1.5997894	4	134	5	3	1	0	8219.083366	0.7005309
8220.283176	1.5997834	4	135	5	2	1	1	8220.683124	0.5005825
8221.882949	1.5997958	4	136	5	1	1	0	8222.282896	0.3005779
8223.482719	1.5997442	4	137	5	1	2	0	8223.882651	0.7005717
8225.082386	1.5999135	4	138	5	2	2	1	8225.482445	0.6005348
8226.682257	1.5997862	4	139	5	3	1	1	8227.082193	0.6005434
8228.282031	1.5997709	4	140	5	4	2	1	8228.681971	0.4006056
8229.881783	1.5997801	4	141	5	5	1	1	8230.281732	0.4005752
8231.481548	1.599828278	4	142	5	6	2	0	8231.88149	0.4005375
8233.081319	1.5997824	4	143	5	7	2	1	8233.481257	0.6005663
8234.681106	1.5997567	4	144	5	8	1	1	8235.081014	0.7002664
8236.280854	1.5997506	4	145	5	9	2	1	8236.680797	0.6005558
8237.880624	1.5997813	4	146	5	10	1	1	8238.280566	0.5005821
8239.4804	1.5997735	4	147	5	11	2	1	8239.880323	0.500567
8241.08001	1.5999258	4	148	5	12	2	1	8241.480101	0.5005776
8242.679934	1.5997745	4	149	7	13	3	n/a	8243.07988	n/a
8244.279689	1.5997759	4	150	7	13	3	n/a	8244.67963	n/a
8245.879447	1.5997952	4	151	7	13	3	n/a	8246.27925	n/a
8247.479215	1.599765	4	152	7	13	3	n/a	8247.879153	n/a
