onset	duration	run_number	trial_number	spatial_frequency	michelson_contrast	probe_orientation	response_correctness	probe_time	reaction_time
589873.1664	1.600200842	6	1	7	13	3	n/a	589873.5664	n/a
589874.7666	1.600223898	6	2	7	13	3	n/a	589875.1667	n/a
589876.3669	1.600207196	6	3	7	13	3	n/a	589876.7669	n/a
589877.9671	1.600207835	6	4	7	13	3	n/a	589878.3672	n/a
589879.5674	1.600226341	6	5	7	13	3	n/a	589879.9674	n/a
589881.1676	1.600236881	6	6	7	13	3	n/a	589881.5677	n/a
589882.7679	1.600256589	6	7	7	13	3	n/a	589883.1679	n/a
589884.3681	1.600269746	6	8	7	13	3	n/a	589884.7682	n/a
589885.9684	1.600239322	6	9	7	13	3	n/a	589886.3685	n/a
589887.5687	1.60012458	6	10	7	13	3	n/a	589887.9686	n/a
589889.1688	1.600218429	6	11	4	12	1	1	589889.5689	0.5034030771
589890.7691	1.600239737	6	12	4	11	1	1	589891.1691	0.5031232515
589892.3693	1.600243251	6	13	4	10	2	1	589892.7694	0.5032397202
589893.9696	1.600240224	6	14	4	9	2	1	589894.3696	0.4031229753
589895.5698	1.60023488	6	15	4	8	2	1	589895.9699	0.6029680752
589897.17	1.60028824	6	16	4	7	2	1	589897.5701	0.5022081024
589898.7703	1.600275144	6	17	4	6	1	1	589899.1704	0.5014350015
589900.3706	1.600237097	6	18	4	5	1	0	589900.7707	0.5014694454
589901.9709	1.600140203	6	19	4	4	2	0	589902.3709	0.4007529494
589903.571	1.600214519	6	20	4	3	1	0	589903.9711	0.4034276915
589905.1713	1.600234075	6	21	4	2	2	0	589905.5713	0.3051470757
589906.7715	1.600236019	6	22	4	1	2	1	589907.1716	0.2035755855
589908.3718	1.600230216	6	23	4	1	1	1	589908.7718	0.2030301242
589909.972	1.600203172	6	24	4	2	1	0	589910.3721	0.2024833282
589911.5724	1.600133206	6	25	4	3	1	0	589911.9723	0.4027205554
589913.1725	1.600211884	6	26	4	4	1	0	589913.5726	0.4029876713
589914.7727	1.600240543	6	27	4	5	1	1	589915.1728	0.403231144
589916.373	1.600225496	6	28	4	6	1	1	589916.773	0.5031103479
589917.9732	1.600225841	6	29	4	7	1	1	589918.3733	0.4023624694
589919.5735	1.600228088	6	30	4	8	2	1	589919.9735	0.402497442
589921.1737	1.600263926	6	31	4	9	1	1	589921.5738	0.4027975772
589922.774	1.600237482	6	32	4	10	2	1	589923.174	0.502214242
589924.3743	1.60014702	6	33	4	11	2	1	589924.7743	0.5026849341
589925.9745	1.600256646	6	34	4	12	2	1	589926.3746	0.5020088489
589927.5748	1.600270481	6	35	7	13	3	n/a	589927.9748	n/a
589929.175	1.600129852	6	36	7	13	3	n/a	589929.5751	n/a
589930.7752	1.600267118	6	37	7	13	3	n/a	589931.1752	n/a
589932.3754	1.600266048	6	38	7	13	3	n/a	589932.7756	n/a
589933.9757	1.60027212	6	39	7	13	3	n/a	589934.3758	n/a
589935.576	1.600204673	6	40	7	13	3	n/a	589935.9761	n/a
589937.1762	1.600239441	6	41	7	13	3	n/a	589937.5762	n/a
589938.7765	1.600127707	6	42	7	13	3	n/a	589939.1764	n/a
589940.3766	1.60027103	6	43	7	13	3	n/a	589940.7767	n/a
589941.9769	1.600262393	6	44	7	13	3	n/a	589942.377	n/a
589943.5772	1.600224846	6	45	1	12	1	1	589943.9772	0.4028099183
589945.1774	1.600220902	6	46	1	11	2	1	589945.5775	0.602839938
589946.7776	1.600252687	6	47	1	10	2	1	589947.1777	0.5021676732
589948.3779	1.600273542	6	48	1	9	2	1	589948.778	0.7016258058
589949.9782	1.600249296	6	49	1	8	1	1	589950.3783	0.5011179089
589951.5785	1.600108831	6	50	1	7	1	1	589951.9785	0.9006496867
589953.1787	1.600150437	6	51	1	6	2	1	589953.5787	0.7016809817
589954.7789	1.600239037	6	52	1	5	2	1	589955.1789	0.8028756559
589956.3791	1.600247893	6	53	1	4	2	0	589956.7791	0.7026914657
589957.9794	1.600236	6	54	1	3	1	0	589958.3794	0.5025879439
589959.5796	1.600234127	6	55	1	2	1	1	589959.9798	0.5033548966
589961.1798	1.600236457	6	56	1	1	2	1	589961.5799	0.402337348
589962.7801	1.600340022	6	57	6	1	1	1	589963.1802	0.402863399
589964.3803	1.600228153	6	58	6	2	1	0	589964.7804	0.402819789
589965.9806	1.600278883	6	59	6	3	2	0	589966.3806	0.4026559282
589967.5809	1.600220605	6	60	6	4	2	1	589967.9809	0.5018644251
589969.1811	1.600255412	6	61	6	5	2	0	589969.5812	0.8007367514
589970.7814	1.600232739	6	62	6	6	2	1	589971.1815	0.7011566025
589972.3815	1.600247604	6	63	6	7	2	0	589972.7816	0.7031756425
589973.9818	1.60023182	6	64	6	8	2	0	589974.3819	0.6030443856
589975.582	1.600245163	6	65	6	9	1	0	589975.9821	0.5029928044
589977.1824	1.600142959	6	66	6	10	1	1	589977.5824	0.6028798108
589978.7825	1.600254263	6	67	6	11	1	1	589979.1826	0.7028922519
589980.3828	1.6002369	6	68	6	12	2	1	589980.7828	0.8030554911
589981.983	1.600243955	6	69	7	13	3	n/a	589982.3831	n/a
589983.5833	1.600214218	6	70	7	13	3	n/a	589983.9833	n/a
589985.1835	1.600214827	6	71	7	13	3	n/a	589985.5837	n/a
589986.7838	1.600228173	6	72	7	13	3	n/a	589987.1838	n/a
589988.384	1.600285658	6	73	7	13	3	n/a	589988.7841	n/a
589989.9843	1.600285887	6	74	7	13	3	n/a	589990.3844	n/a
589991.5846	1.600245659	6	75	7	13	3	n/a	589991.9847	n/a
589993.1847	1.600233253	6	76	7	13	3	n/a	589993.5848	n/a
589994.785	1.600234155	6	77	7	13	3	n/a	589995.185	n/a
589996.3852	1.600235343	6	78	7	13	3	n/a	589996.7853	n/a
589997.9855	1.600224006	6	79	2	12	2	1	589998.3855	0.5011791558
589999.5857	1.6002454	6	80	2	11	2	1	589999.9858	0.6006688459
590001.186	1.600238393	6	81	2	10	2	1	590001.586	0.6024140989
590002.7863	1.600194861	6	82	2	9	2	1	590003.1863	0.6024538812
590004.3865	1.600219996	6	83	2	8	2	1	590004.7865	0.7027644361
590005.9867	1.600241838	6	84	2	7	2	1	590006.3868	0.7018225281
590007.5869	1.600225755	6	85	2	6	1	1	590007.987	0.6027837381
590009.1872	1.600253257	6	86	2	5	1	1	590009.5873	0.6025393871
590010.7875	1.600241752	6	87	2	4	2	0	590011.1875	0.7020605826
590012.3877	1.60025365	6	88	2	3	2	1	590012.7878	0.6013582286
590013.988	1.600129311	6	89	2	2	2	0	590014.3881	0.5010636806
590015.5883	1.600122358	6	90	2	1	1	1	590015.9882	0.7031017069
590017.1884	1.600233145	6	91	2	1	2	0	590017.5886	0.7028869375
590018.7887	1.600221134	6	92	2	2	2	1	590019.1887	0.603049132
590020.3889	1.600225004	6	93	2	3	2	0	590020.789	0.502825389
590021.9892	1.600229735	6	94	2	4	1	0	590022.3892	0.60268884
590023.5894	1.600230153	6	95	2	5	1	1	590023.9895	0.602671936
590025.1896	1.600235843	6	96	2	6	1	1	590025.5897	0.602506544
590026.7899	1.600227696	6	97	2	7	2	1	590027.19	0.6025486519
590028.3901	1.600220525	6	98	2	8	1	1	590028.7902	0.502505893
590029.9904	1.600209841	6	99	2	9	2	1	590030.3905	0.5011632653
590031.5906	1.600230967	6	100	2	10	2	1	590031.9907	0.502523395
590033.1909	1.600225237	6	101	2	11	2	1	590033.5909	0.5028452498
590034.7911	1.60021259	6	102	2	12	2	1	590035.1912	0.502843134
590036.3914	1.600228677	6	103	7	13	3	n/a	590036.7914	n/a
590037.9916	1.600244228	6	104	7	13	3	n/a	590038.3917	n/a
590039.5919	1.600260346	6	105	7	13	3	n/a	590039.992	n/a
590041.1922	1.600251499	6	106	7	13	3	n/a	590041.5922	n/a
590042.7924	1.600125245	6	107	7	13	3	n/a	590043.1925	n/a
590044.3926	1.600222041	6	108	7	13	3	n/a	590044.7926	n/a
590045.9928	1.600250857	6	109	7	13	3	n/a	590046.3929	n/a
590047.5931	1.60023079	6	110	7	13	3	n/a	590047.9931	n/a
590049.1933	1.600242647	6	111	7	13	3	n/a	590049.5934	n/a
590050.7936	1.6002396	6	112	7	13	3	n/a	590051.1936	n/a
590052.3938	1.60025512	6	113	5	12	1	1	590052.7939	0.5027348595
590053.9941	1.60028344	6	114	5	11	2	1	590054.3942	0.4019061999
590055.5944	1.600243811	6	115	5	10	1	1	590055.9944	0.4012503402
590057.1946	1.600231947	6	116	5	9	2	1	590057.5947	0.5011169337
590058.7949	1.600112835	6	117	5	8	1	1	590059.1949	0.5032727396
590060.395	1.600252624	6	118	5	7	2	1	590060.7951	0.5029818192
590061.9953	1.600226206	6	119	5	6	1	1	590062.3953	0.7031450093
590063.5955	1.600262657	6	120	5	5	1	0	590063.9956	0.6028858776
590065.1958	1.600229463	6	121	5	4	1	1	590065.5958	0.5012745401
590066.796	1.600243857	6	122	5	3	2	1	590067.1961	0.4027485811
590068.3962	1.600251006	6	123	5	2	2	0	590068.7963	0.4028198103
590069.9965	1.600246888	6	124	5	1	1	0	590070.3966	0.2010544322
590071.5967	1.60023582	6	125	1	1	2	0	590071.9968	0.2011080831
590073.197	1.600285878	6	126	1	2	2	1	590073.597	0.4025676112
590074.7972	1.600235367	6	127	1	3	2	0	590075.1973	0.401091836
590076.3975	1.600232265	6	128	1	4	1	0	590076.7975	0.3033593911
590077.9977	1.600234128	6	129	1	5	1	1	590078.3978	0.401679391
590079.5981	1.600223567	6	130	1	6	2	1	590079.9981	0.4030117847
590081.1983	1.600172222	6	131	1	7	2	0	590081.5984	0.4025228064
590082.7985	1.600322791	6	132	1	8	2	1	590083.1985	0.6028519617
590084.3987	1.600236112	6	133	1	9	1	1	590084.7988	0.6023434871
590085.999	1.600236396	6	134	1	10	2	1	590086.399	0.5026630772
590087.5993	1.600244824	6	135	1	11	1	1	590087.9993	0.5025284931
590089.1994	1.600196617	6	136	1	12	2	1	590089.5996	0.5011657653
590090.7997	1.600307175	6	137	7	13	3	n/a	590091.1998	n/a
590092.3999	1.600241834	6	138	7	13	3	n/a	590092.8	n/a
590094.0002	1.600232036	6	139	7	13	3	n/a	590094.4002	n/a
590095.6005	1.600197723	6	140	7	13	3	n/a	590096.0005	n/a
590097.2008	1.600206309	6	141	7	13	3	n/a	590097.6008	n/a
590098.801	1.600240336	6	142	7	13	3	n/a	590099.2011	n/a
590100.4013	1.600135721	6	143	7	13	3	n/a	590100.8013	n/a
590102.0014	1.60856938	6	144	7	13	3	n/a	590102.4015	n/a
590103.61	1.600245249	6	145	7	13	3	n/a	590104.01	n/a
590105.2102	1.600231155	6	146	7	13	3	n/a	590105.6103	n/a
590106.8105	1.600253886	6	147	6	12	2	1	590107.2105	0.5027715202
590108.4107	1.600250148	6	148	6	11	1	1	590108.8108	0.4024446276
590110.011	1.600234139	6	149	6	10	1	1	590110.411	0.5027796752
590111.6112	1.600246853	6	150	6	9	1	0	590112.0113	0.4027668282
590113.2115	1.600235157	6	151	6	8	2	1	590113.6115	0.5024364518
590114.8117	1.600203848	6	152	6	7	1	1	590115.2118	0.5027627321
590116.4119	1.600239684	6	153	6	6	2	1	590116.812	0.6027785302
590118.0122	1.60024111	6	154	6	5	2	0	590118.4123	0.4027137262
590119.6125	1.600216763	6	155	6	4	1	0	590120.0125	0.102644546
590121.2127	1.600274391	6	156	6	3	1	1	590121.6128	0.2021107065
590122.813	1.600280685	6	157	6	2	2	1	590123.213	0.2014374108
590124.4133	1.600137086	6	158	6	1	2	0	590124.8133	0.3011029494
590126.0134	1.600263846	6	159	5	1	1	0	590126.4136	0.3028459025
590127.6138	1.6002288	6	160	5	2	1	n/a	590128.0137	n/a
590129.214	1.60024705	6	161	5	3	1	0	590129.6141	0.6014529322
590130.8142	1.600112939	6	162	5	4	2	0	590131.2143	0.3009796634
590132.4145	1.600134604	6	163	5	5	1	0	590132.8145	0.3013307439
590134.0146	1.600237414	6	164	5	6	2	0	590134.4147	0.1029352519
590135.6148	1.600247925	6	165	5	7	1	0	590136.0149	0.00283804792
590137.2151	1.600227494	6	166	5	8	1	1	590137.6152	0.6026363915
590138.8154	1.600233614	6	167	5	9	2	1	590139.2154	0.5024910519
590140.4156	1.608562245	6	168	5	10	1	1	590140.8157	0.602788336
590142.0242	1.60026557	6	169	5	11	2	1	590142.4243	0.6026353812
590143.6244	1.600242373	6	170	5	12	1	1	590144.0245	0.5014822891
590145.2247	1.600250097	6	171	7	13	3	n/a	590145.6248	n/a
590146.825	1.600248355	6	172	7	13	3	n/a	590147.2251	n/a
590148.4253	1.600100699	6	173	7	13	3	n/a	590148.8253	n/a
590150.0255	1.6002296	6	174	7	13	3	n/a	590150.4255	n/a
590151.6256	1.600248218	6	175	7	13	3	n/a	590152.0257	n/a
590153.2259	1.600243808	6	176	7	13	3	n/a	590153.626	n/a
590154.8262	1.600224745	6	177	7	13	3	n/a	590155.2262	n/a
590156.4264	1.600228402	6	178	7	13	3	n/a	590156.8265	n/a
590158.0267	1.600131758	6	179	7	13	3	n/a	590158.4267	n/a
590159.627	1.600168938	6	180	7	13	3	n/a	590160.027	n/a
590161.2271	1.600232475	6	181	3	12	2	1	590161.6273	0.4021660124
590162.8274	1.600243439	6	182	3	11	2	1	590163.2275	0.5032674905
590164.4276	1.600244412	6	183	3	10	2	1	590164.8277	0.403583699
590166.0279	1.600254344	6	184	3	9	2	1	590166.428	0.5018767866
590167.6282	1.600225339	6	185	3	8	2	1	590168.0282	0.6011532345
590169.2285	1.600245816	6	186	3	7	2	1	590169.6285	0.6006766554
590170.8287	1.600136411	6	187	3	6	2	1	590171.2287	0.5033225544
590172.4288	1.600242702	6	188	3	5	1	1	590172.8289	0.6028523307
590174.0291	1.600236466	6	189	3	4	2	1	590174.4292	0.6032763697
590175.6294	1.600250655	6	190	3	3	1	1	590176.0294	0.7032290638
590177.2296	1.60022501	6	191	3	2	1	1	590177.6297	0.9028105197
590178.8298	1.600244859	6	192	3	1	2	0	590179.2299	0.8026059029
590180.4301	1.60024421	6	193	3	1	2	1	590180.8301	0.5026090791
590182.0303	1.600234086	6	194	3	2	1	1	590182.4304	0.502716044
590183.6306	1.600240636	6	195	3	3	2	1	590184.0307	0.7030385227
590185.2308	1.600217914	6	196	3	4	1	1	590185.6309	0.6026178682
590186.8311	1.600264264	6	197	3	5	2	1	590187.2311	0.502984297
590188.4313	1.600272934	6	198	3	6	1	1	590188.8314	0.5018801416
590190.0316	1.600264697	6	199	3	7	1	1	590190.4317	0.6013440524
590191.6318	1.600254305	6	200	3	8	1	1	590192.0319	0.6027882985
590193.2321	1.600134837	6	201	3	9	2	1	590193.6321	0.5013393335
590194.8323	1.600223302	6	202	3	10	2	1	590195.2323	0.5030569207
590196.4325	1.600247216	6	203	3	11	1	1	590196.8326	0.5026561207
590198.0328	1.600229365	6	204	3	12	2	1	590198.4328	0.402785648
590199.6331	1.600258633	6	205	7	13	3	n/a	590200.0331	n/a
590201.2333	1.60020465	6	206	7	13	3	n/a	590201.6334	n/a
590202.8336	1.600135527	6	207	7	13	3	n/a	590203.2337	n/a
590204.4338	1.600213171	6	208	7	13	3	n/a	590204.8338	n/a
590206.034	1.600217041	6	209	7	13	3	n/a	590206.4341	n/a
590207.6343	1.600217961	6	210	7	13	3	n/a	590208.0343	n/a
590209.2345	1.6002362	6	211	7	13	3	n/a	590209.6346	n/a
590210.8347	1.600232308	6	212	7	13	3	n/a	590211.2348	n/a
590212.4351	1.600138178	6	213	7	13	3	n/a	590212.8351	n/a
590214.0352	1.600223296	6	214	7	13	3	n/a	590214.4353	n/a
