onset	duration	run_number	trial_number	spatial_frequency	michelson_contrast	probe_orientation	response_correctness	probe_time	reaction_time
590655.5279	1.600188032	8	1	7	13	3	n/a	590655.928	n/a
590657.1281	1.600243605	8	2	7	13	3	n/a	590657.5281	n/a
590658.7283	1.600331208	8	3	7	13	3	n/a	590659.1284	n/a
590660.3286	1.600239227	8	4	7	13	3	n/a	590660.7286	n/a
590661.9288	1.600262343	8	5	7	13	3	n/a	590662.3289	n/a
590663.5291	1.600269898	8	6	7	13	3	n/a	590663.9292	n/a
590665.1294	1.600237103	8	7	7	13	3	n/a	590665.5295	n/a
590666.7297	1.600092421	8	8	7	13	3	n/a	590667.1297	n/a
590668.3298	1.600207464	8	9	7	13	3	n/a	590668.7299	n/a
590669.93	1.600349613	8	10	7	13	3	n/a	590670.3301	n/a
590671.5303	1.600247558	8	11	4	12	2	1	590671.9303	0.4036801114
590673.1307	1.600130495	8	12	4	11	1	1	590673.5306	0.5032432034
590674.7308	1.600262038	8	13	4	10	1	1	590675.1309	0.5030675526
590676.331	1.600225379	8	14	4	9	2	1	590676.7311	0.4031321885
590677.9313	1.600221634	8	15	4	8	2	1	590678.3313	0.402775437
590679.5315	1.600218937	8	16	4	7	2	0	590679.9316	0.4024855611
590681.1318	1.6002359	8	17	4	6	1	1	590681.5318	0.502790755
590682.732	1.600221327	8	18	4	5	2	1	590683.1321	0.5031819276
590684.3322	1.600258217	8	19	4	4	1	1	590684.7323	0.6051668946
590685.9325	1.600224961	8	20	4	3	1	0	590686.3326	0.603294258
590687.5328	1.600229091	8	21	4	2	1	1	590687.9328	0.6032308065
590689.133	1.600252859	8	22	4	1	1	0	590689.5331	0.5022419854
590690.7333	1.60027948	8	23	4	1	2	0	590691.1334	0.4007881632
590692.3336	1.60026362	8	24	4	2	1	0	590692.7336	0.3007390409
590693.9338	1.600234124	8	25	4	3	1	1	590694.3339	0.3019405353
590695.534	1.600239422	8	26	4	4	1	0	590695.9341	0.3028721059
590697.1343	1.600255325	8	27	4	5	1	1	590697.5343	0.3019669264
590698.7345	1.600263144	8	28	4	6	2	1	590699.1346	0.4009442527
590700.3348	1.600089336	8	29	4	7	1	1	590700.7349	0.5028698962
590701.935	1.600262274	8	30	4	8	2	1	590702.335	0.5030034668
590703.5352	1.600243191	8	31	4	9	2	1	590703.9353	0.4028587245
590705.1355	1.600229188	8	32	4	10	1	1	590705.5355	0.4029190668
590706.7357	1.600254638	8	33	4	11	1	1	590707.1358	0.5029420394
590708.3359	1.6002262	8	34	4	12	2	1	590708.7361	0.4056974291
590709.9362	1.600235103	8	35	7	13	3	n/a	590710.3362	n/a
590711.5364	1.600350292	8	36	7	13	3	n/a	590711.9365	n/a
590713.1367	1.600281877	8	37	7	13	3	n/a	590713.5368	n/a
590714.737	1.600264129	8	38	7	13	3	n/a	590715.1371	n/a
590716.3373	1.600132424	8	39	7	13	3	n/a	590716.7373	n/a
590717.9374	1.600222109	8	40	7	13	3	n/a	590718.3374	n/a
590719.5376	1.600232994	8	41	7	13	3	n/a	590719.9377	n/a
590721.1379	1.600216731	8	42	7	13	3	n/a	590721.538	n/a
590722.7381	1.600229566	8	43	7	13	3	n/a	590723.1382	n/a
590724.3384	1.600241031	8	44	7	13	3	n/a	590724.7384	n/a
590725.9387	1.600151734	8	45	1	12	1	1	590726.3387	0.5029051214
590727.5389	1.6002269	8	46	1	11	2	1	590727.9389	0.5030687382
590729.1391	1.600231555	8	47	1	10	2	1	590729.5392	0.6028576245
590730.7394	1.600254792	8	48	1	9	1	1	590731.1394	0.5023706221
590732.3397	1.600210283	8	49	1	8	2	1	590732.7397	0.5012596303
590733.9399	1.600256306	8	50	1	7	1	1	590734.34	0.6010801838
590735.5402	1.600119876	8	51	1	6	1	1	590735.9403	0.6005586111
590737.1403	1.600241	8	52	1	5	1	1	590737.5404	0.7028579512
590738.7406	1.600270061	8	53	1	4	1	1	590739.1406	0.403015863
590740.3408	1.600236809	8	54	1	3	2	0	590740.7409	0.4027195332
590741.9411	1.600233442	8	55	1	2	2	1	590742.3411	0.3025927488
590743.5413	1.600223748	8	56	1	1	1	1	590743.9414	0.4028650245
590745.1416	1.600221446	8	57	6	1	2	0	590745.5416	0.4025904729
590746.7418	1.600246394	8	58	6	2	1	0	590747.1419	0.3022094942
590748.3421	1.600235676	8	59	6	3	1	1	590748.7421	0.3028205457
590749.9423	1.600207326	8	60	6	4	1	0	590750.3423	0.4028355785
590751.5425	1.600261656	8	61	6	5	2	0	590751.9426	0.6032620252
590753.1428	1.600191132	8	62	6	6	1	0	590753.5429	0.4020916836
590754.7431	1.600256998	8	63	6	7	1	1	590755.1432	0.3009636918
590756.3434	1.600082857	8	64	6	8	2	0	590756.7435	0.4011084354
590757.9435	1.600226624	8	65	6	9	2	0	590758.3436	0.5025210567
590759.5438	1.600134905	8	66	6	10	1	1	590759.9438	0.5032309083
590761.144	1.600218439	8	67	6	11	2	1	590761.5441	0.6031547573
590762.7442	1.600251405	8	68	6	12	1	1	590763.1443	0.803013509
590764.3445	1.600238421	8	69	7	13	3	n/a	590764.7446	n/a
590765.9447	1.600228048	8	70	7	13	3	n/a	590766.3448	n/a
590767.545	1.600230918	8	71	7	13	3	n/a	590767.9451	n/a
590769.1452	1.60024237	8	72	7	13	3	n/a	590769.5453	n/a
590770.7455	1.60024117	8	73	7	13	3	n/a	590771.1456	n/a
590772.3457	1.600213315	8	74	7	13	3	n/a	590772.7458	n/a
590773.946	1.600249308	8	75	7	13	3	n/a	590774.346	n/a
590775.5463	1.600257625	8	76	7	13	3	n/a	590775.9463	n/a
590777.1465	1.60027018	8	77	7	13	3	n/a	590777.5466	n/a
590778.7468	1.600098427	8	78	7	13	3	n/a	590779.1469	n/a
590780.3469	1.600228906	8	79	2	12	2	1	590780.747	0.4030447723
590781.9472	1.600231966	8	80	2	11	2	1	590782.3473	0.402657661
590783.5474	1.600231964	8	81	2	10	1	1	590783.9475	0.5030040668
590785.1477	1.600218724	8	82	2	9	1	1	590785.5478	0.4030219456
590786.7479	1.600207619	8	83	2	8	1	1	590787.148	0.4029008972
590788.3482	1.600240515	8	84	2	7	2	1	590788.7482	0.5011581822
590789.9484	1.600234699	8	85	2	6	1	1	590790.3485	0.4027016637
590791.5487	1.600236873	8	86	2	5	1	1	590791.9487	0.5028910338
590793.1489	1.600228806	8	87	2	4	2	0	590793.5491	0.5026748689
590794.7492	1.600228212	8	88	2	3	2	1	590795.1492	0.4028426306
590796.3494	1.600339153	8	89	2	2	2	0	590796.7495	0.3024952518
590797.9496	1.600214503	8	90	2	1	1	0	590798.3497	0.2027779213
590799.5499	1.600219164	8	91	2	1	2	0	590799.9499	0.4027883424
590801.1501	1.600222755	8	92	2	2	1	0	590801.5502	0.4008983183
590802.7504	1.600268338	8	93	2	3	2	0	590803.1505	0.402071601
590804.3507	1.600276577	8	94	2	4	1	1	590804.7508	0.5016251545
590805.951	1.600241924	8	95	2	5	2	1	590806.351	0.6010994595
590807.5512	1.600116326	8	96	2	6	1	1	590807.9512	0.502941563
590809.1514	1.600229578	8	97	2	7	2	1	590809.5514	0.5030105724
590810.7517	1.600146104	8	98	2	8	1	1	590811.1517	0.5025938182
590812.3518	1.600205834	8	99	2	9	2	1	590812.7519	0.5028648517
590813.9521	1.600261136	8	100	2	10	2	1	590814.3521	0.4024033574
590815.5523	1.600209848	8	101	2	11	2	1	590815.9524	0.4024431393
590817.1526	1.600272074	8	102	2	12	1	1	590817.5527	0.4025239822
590818.7529	1.600273574	8	103	7	13	3	n/a	590819.153	n/a
590820.3532	1.60024796	8	104	7	13	3	n/a	590820.7532	n/a
590821.9534	1.600228369	8	105	7	13	3	n/a	590822.3535	n/a
590823.5537	1.600090382	8	106	7	13	3	n/a	590823.9536	n/a
590825.1539	1.600120797	8	107	7	13	3	n/a	590825.554	n/a
590826.754	1.600246762	8	108	7	13	3	n/a	590827.1541	n/a
590828.3543	1.600260102	8	109	7	13	3	n/a	590828.7543	n/a
590829.9545	1.600238057	8	110	7	13	3	n/a	590830.3546	n/a
590831.5548	1.60023447	8	111	7	13	3	n/a	590831.9549	n/a
590833.155	1.600241524	8	112	7	13	3	n/a	590833.5551	n/a
590834.7553	1.600238178	8	113	5	12	1	1	590835.1553	0.4028617152
590836.3555	1.60019155	8	114	5	11	2	1	590836.7557	0.5027063565
590837.9558	1.600212948	8	115	5	10	1	1	590838.3558	0.5028417214
590839.556	1.60021207	8	116	5	9	2	1	590839.9561	0.5029517972
590841.1563	1.600235991	8	117	5	8	2	1	590841.5563	0.5012394674
590842.7565	1.600241412	8	118	5	7	1	1	590843.1566	0.4024610488
590844.3567	1.600242276	8	119	5	6	1	1	590844.7568	0.3026652003
590845.957	1.600247542	8	120	5	5	2	1	590846.3572	0.2025746861
590847.5572	1.600226391	8	121	5	4	1	1	590847.9573	0.1025365097
590849.1575	1.600308757	8	122	5	3	2	n/a	590849.5575	n/a
590850.7577	1.600242451	8	123	5	2	2	0	590851.1578	0.002830745652
590852.3581	1.600228452	8	124	5	1	1	0	590852.758	0.1011919096
590853.9582	1.60022066	8	125	1	1	1	1	590854.3584	0.1027732261
590855.5585	1.600245948	8	126	1	2	2	1	590855.9585	0.2027663027
590857.1587	1.600240657	8	127	1	3	1	1	590857.5588	0.3011934761
590858.759	1.600243197	8	128	1	4	1	1	590859.159	0.3029412698
590860.3593	1.600212925	8	129	1	5	1	1	590860.7593	0.302349183
590861.9596	1.600234695	8	130	1	6	1	1	590862.3596	0.4014788595
590863.5598	1.600247599	8	131	1	7	2	1	590863.9599	0.5004660595
590865.16	1.600111369	8	132	1	8	1	1	590865.56	0.600675063
590866.7602	1.60022257	8	133	1	9	1	1	590867.1602	0.5021637735
590868.3605	1.600204177	8	134	1	10	2	1	590868.7605	0.50272153
590869.9607	1.600258581	8	135	1	11	1	1	590870.3608	0.500752562
590871.5609	1.60025996	8	136	1	12	1	1	590871.961	0.6029383898
590873.1612	1.600212097	8	137	7	13	3	n/a	590873.5612	n/a
590874.7614	1.600324452	8	138	7	13	3	n/a	590875.1615	n/a
590876.3618	1.600143227	8	139	7	13	3	n/a	590876.7618	n/a
590877.962	1.600231524	8	140	7	13	3	n/a	590878.362	n/a
590879.5622	1.600229072	8	141	7	13	3	n/a	590879.9623	n/a
590881.1624	1.600233018	8	142	7	13	3	n/a	590881.5624	n/a
590882.7626	1.60024106	8	143	7	13	3	n/a	590883.1627	n/a
590884.363	1.600172846	8	144	7	13	3	n/a	590884.7629	n/a
590885.9631	1.600215038	8	145	7	13	3	n/a	590886.3633	n/a
590887.5634	1.600245079	8	146	7	13	3	n/a	590887.9634	n/a
590889.1636	1.600243572	8	147	6	12	2	1	590889.5637	0.4028096065
590890.7639	1.600231876	8	148	6	11	1	1	590891.1639	0.5029048549
590892.3641	1.600238927	8	149	6	10	1	1	590892.7642	0.8028459307
590893.9643	1.600227633	8	150	6	9	1	1	590894.3644	1.002634528
590895.5646	1.60023886	8	151	6	8	2	0	590895.9646	0.8027825487
590897.1648	1.60023877	8	152	6	7	1	0	590897.5649	0.6025119785
590898.7651	1.600212003	8	153	6	6	2	0	590899.1651	0.6021623034
590900.3654	1.600244591	8	154	6	5	1	0	590900.7654	0.5024965971
590901.9656	1.600263484	8	155	6	4	1	1	590902.3657	0.5027847313
590903.5658	1.600273604	8	156	6	3	1	0	590903.9659	0.6016664383
590905.1662	1.600236716	8	157	6	2	2	0	590905.5662	0.7012004948
590906.7664	1.600228676	8	158	6	1	2	1	590907.1665	0.7019291354
590908.3666	1.600121745	8	159	5	1	1	1	590908.7666	0.6027460877
590909.9668	1.600292677	8	160	5	2	1	0	590910.3668	0.6018447472
590911.5671	1.600281325	8	161	5	3	2	0	590911.9672	0.7009283551
590913.1674	1.600231276	8	162	5	4	1	0	590913.5675	0.7006448838
590914.7675	1.600251081	8	163	5	5	2	0	590915.1676	0.7041880724
590916.3677	1.600192001	8	164	5	6	2	1	590916.7678	0.8028298973
590917.968	1.600230584	8	165	5	7	2	0	590918.368	0.7030567244
590919.5682	1.600319195	8	166	5	8	2	1	590919.9683	0.6026830269
590921.1685	1.600240287	8	167	5	9	1	1	590921.5686	0.5027783456
590922.7688	1.600223524	8	168	5	10	2	1	590923.1688	0.5029036244
590924.369	1.600221406	8	169	5	11	2	1	590924.7691	0.5027613034
590925.9693	1.600262798	8	170	5	12	1	1	590926.3693	0.502520219
590927.5696	1.600273774	8	171	7	13	3	n/a	590927.9696	n/a
590929.1699	1.600225245	8	172	7	13	3	n/a	590929.5699	n/a
590930.7701	1.600116554	8	173	7	13	3	n/a	590931.17	n/a
590932.3702	1.60026957	8	174	7	13	3	n/a	590932.7703	n/a
590933.9705	1.600237612	8	175	7	13	3	n/a	590934.3706	n/a
590935.5707	1.600254984	8	176	7	13	3	n/a	590935.9708	n/a
590937.171	1.600229633	8	177	7	13	3	n/a	590937.571	n/a
590938.7712	1.6002045	8	178	7	13	3	n/a	590939.1713	n/a
590940.3715	1.600215234	8	179	7	13	3	n/a	590940.7715	n/a
590941.9717	1.600239314	8	180	7	13	3	n/a	590942.3718	n/a
590943.5719	1.600257274	8	181	3	12	2	1	590943.972	0.4020506488
590945.1722	1.600256698	8	182	3	11	2	1	590945.5723	0.4016691265
590946.7725	1.600253689	8	183	3	10	2	1	590947.1726	0.5007414862
590948.3727	1.600229014	8	184	3	9	1	1	590948.7728	0.4005346838
590949.9729	1.600221724	8	185	3	8	2	1	590950.373	0.5024676103
590951.5731	1.600262969	8	186	3	7	1	1	590951.9732	0.502118663
590953.1734	1.600233766	8	187	3	6	2	1	590953.5735	0.5029420934
590954.7737	1.600226121	8	188	3	5	1	1	590955.1737	0.5027698909
590956.3739	1.600222778	8	189	3	4	1	1	590956.774	0.5028238593
590957.9743	1.600115293	8	190	3	3	1	0	590958.3742	0.3024954103
590959.5744	1.600247111	8	191	3	2	2	0	590959.9745	0.2028315761
590961.1746	1.600248803	8	192	3	1	2	1	590961.5747	0.202839655
590962.7749	1.600235455	8	193	3	1	1	1	590963.175	0.2031023829
590964.3751	1.60023385	8	194	3	2	1	0	590964.7752	0.103211255
590965.9754	1.600269232	8	195	3	3	1	1	590966.3755	0.1020321205
590967.5757	1.600285183	8	196	3	4	1	0	590967.9758	0.1012374354
590969.176	1.600219003	8	197	3	5	1	1	590969.576	0.3024170838
590970.7762	1.60010346	8	198	3	6	1	1	590971.1761	0.5031218325
590972.3763	1.600202355	8	199	3	7	1	1	590972.7764	0.5027746449
590973.9766	1.600221634	8	200	3	8	2	1	590974.3766	0.5037066001
590975.5768	1.600235842	8	201	3	9	2	1	590975.9769	0.4039162972
590977.1771	1.600245524	8	202	3	10	2	1	590977.5771	0.4027892066
590978.7773	1.600240545	8	203	3	11	2	1	590979.1774	0.5027627181
590980.3775	1.600278158	8	204	3	12	2	1	590980.7776	0.4029518308
590981.9778	1.600247673	8	205	7	13	3	n/a	590982.3779	n/a
590983.5781	1.600156797	8	206	7	13	3	n/a	590983.9781	n/a
590985.1783	1.600245348	8	207	7	13	3	n/a	590985.5784	n/a
590986.7786	1.60022966	8	208	7	13	3	n/a	590987.1786	n/a
590988.3788	1.600266977	8	209	7	13	3	n/a	590988.7789	n/a
590989.9791	1.600270043	8	210	7	13	3	n/a	590990.3792	n/a
590991.5794	1.600244548	8	211	7	13	3	n/a	590991.9795	n/a
590993.1796	1.60010798	8	212	7	13	3	n/a	590993.5796	n/a
590994.7798	1.60022864	8	213	7	13	3	n/a	590995.1798	n/a
590996.38	1.600247688	8	214	7	13	3	n/a	590996.7801	n/a
