onset	duration	run_number	trial_number	spatial_frequency	michelson_contrast	probe_orientation	response_correctness	probe_time	reaction_time
119362.4293	1.599387733	1	1	7	7	3	n/a	119362.8295	n/a
119364.0289	1.599362319	1	2	7	7	3	n/a	119364.4287	n/a
119365.6284	1.599498189	1	3	7	7	3	n/a	119366.0282	n/a
119367.228	1.599371108	1	4	7	7	3	n/a	119367.6279	n/a
119368.8274	1.599811443	1	5	7	7	3	n/a	119369.2275	n/a
119370.4271	1.59961805	1	6	7	7	3	n/a	119370.8269	n/a
119372.0266	1.59973672	1	7	7	7	3	n/a	119372.4265	n/a
119373.6263	1.599413837	1	8	7	7	3	n/a	119374.0262	n/a
119375.2257	1.599771658	1	9	7	7	3	n/a	119375.6258	n/a
119376.8254	1.599743594	1	10	7	7	3	n/a	119377.2253	n/a
119378.425	1.599645689	1	11	6	6	1	n/a	119378.825	n/a
119380.0246	1.59972489	1	12	6	5	2	n/a	119380.4245	n/a
119381.6242	1.599535188	1	13	6	4	1	n/a	119382.024	n/a
119383.2236	1.599735962	1	14	6	3	2	n/a	119383.6236	n/a
119384.8233	1.599593073	1	15	6	2	1	n/a	119385.2232	n/a
119386.423	1.599469748	1	16	6	1	1	n/a	119386.8227	n/a
119388.0224	1.599706668	1	17	6	1	2	n/a	119388.4223	n/a
119389.6219	1.599653402	1	18	6	2	1	n/a	119390.0219	n/a
119391.2217	1.599636033	1	19	6	3	2	n/a	119391.6216	n/a
119392.8213	1.599599632	1	20	6	4	2	n/a	119393.2212	n/a
119394.4208	1.599590774	1	21	6	5	2	n/a	119394.821	n/a
119396.0207	1.599553894	1	22	6	6	2	n/a	119396.4201	n/a
119397.6199	1.5995358	1	23	7	7	3	n/a	119398.0199	n/a
119399.2195	1.599645966	1	24	7	7	3	n/a	119399.6194	n/a
119400.8191	1.599595852	1	25	7	7	3	n/a	119401.219	n/a
119402.4186	1.599644642	1	26	7	7	3	n/a	119402.8185	n/a
119404.0183	1.599550844	1	27	7	7	3	n/a	119404.4182	n/a
119405.6178	1.599670451	1	28	7	7	3	n/a	119406.0177	n/a
119407.2172	1.599711263	1	29	7	7	3	n/a	119407.6172	n/a
119408.817	1.599664774	1	30	7	7	3	n/a	119409.2169	n/a
119410.4164	1.599776304	1	31	7	7	3	n/a	119410.8165	n/a
119412.016	1.599606991	1	32	7	7	3	n/a	119412.4161	n/a
119413.6156	1.599745319	1	33	3	6	1	n/a	119414.0155	n/a
119415.2155	1.615996457	1	34	3	5	1	n/a	119415.6156	n/a
119416.8316	1.599635334	1	35	3	4	1	n/a	119417.2313	n/a
119418.4311	1.599791026	1	36	3	3	2	n/a	119418.831	n/a
119420.0307	1.599649751	1	37	3	2	2	n/a	119420.4305	n/a
119421.6302	1.59993034	1	38	3	1	1	n/a	119422.0301	n/a
119423.2298	1.599435294	1	39	1	1	2	n/a	119423.6297	n/a
119424.8293	1.599367661	1	40	1	2	1	n/a	119425.2291	n/a
119426.4289	1.616209875	1	41	1	3	2	n/a	119426.8288	n/a
119428.045	1.599798995	1	42	1	4	2	n/a	119428.445	n/a
119429.6446	1.599536541	1	43	1	5	1	n/a	119430.0445	n/a
119431.2442	1.599710353	1	44	1	6	1	n/a	119431.6439	n/a
119432.844	1.599485781	1	45	7	7	3	n/a	119433.2454	n/a
119434.4436	1.599372106	1	46	7	7	3	n/a	119434.8432	n/a
119436.046	1.613023405	1	47	7	7	3	n/a	119436.4596	n/a
119437.6595	1.599363969	1	48	7	7	3	n/a	119438.0592	n/a
119439.259	1.599472567	1	49	7	7	3	n/a	119439.6586	n/a
119440.8585	1.599322031	1	50	7	7	3	n/a	119441.2583	n/a
119442.4578	1.59957378	1	51	7	7	3	n/a	119442.8577	n/a
119444.0574	1.599758568	1	52	7	7	3	n/a	119444.4573	n/a
119445.6569	1.666377558	1	53	7	7	3	n/a	119446.0569	n/a
119447.3233	1.599472383	1	54	7	7	3	n/a	119447.723	n/a
119448.9228	1.632936716	1	55	5	6	2	n/a	119449.3561	n/a
119450.5558	1.599483905	1	56	5	5	2	n/a	119450.9556	n/a
119452.1553	1.5994869	1	57	5	4	2	n/a	119452.5552	n/a
119453.7549	1.599773022	1	58	5	3	2	n/a	119454.1548	n/a
119455.3544	1.599648893	1	59	5	2	2	n/a	119455.7544	n/a
119456.954	1.616507457	1	60	5	1	2	n/a	119457.3537	n/a
119458.5704	1.599507405	1	61	3	1	2	n/a	119458.9705	n/a
119460.1699	1.632840351	1	62	3	2	2	n/a	119460.5697	n/a
119461.803	1.599328144	1	63	3	3	1	n/a	119462.203	n/a
119463.4023	1.599605681	1	64	3	4	1	n/a	119463.8023	n/a
119465.0184	1.616382045	1	65	3	5	2	n/a	119465.4184	n/a
119466.6348	1.599523619	1	66	3	6	1	n/a	119467.0346	n/a
119468.2347	1.599535837	1	67	7	7	3	n/a	119468.6346	n/a
119469.8342	1.599623209	1	68	7	7	3	n/a	119470.2341	n/a
119471.434	1.59940214	1	69	7	7	3	n/a	119471.8339	n/a
119473.0334	1.599467906	1	70	7	7	3	n/a	119473.4333	n/a
119474.6329	1.599896559	1	71	7	7	3	n/a	119475.0328	n/a
119476.2326	1.599474118	1	72	7	7	3	n/a	119476.6324	n/a
119477.832	1.599635225	1	73	7	7	3	n/a	119478.2319	n/a
119479.4511	1.613303065	1	74	7	7	3	n/a	119479.8652	n/a
119481.0644	1.616233694	1	75	7	7	3	n/a	119481.4642	n/a
119482.6807	1.599615379	1	76	7	7	3	n/a	119483.0805	n/a
119484.2802	1.599758455	1	77	1	6	1	n/a	119484.6801	n/a
119485.8798	1.59970921	1	78	1	5	1	n/a	119486.2798	n/a
119487.4796	1.599512523	1	79	1	4	1	n/a	119487.8793	n/a
119489.079	1.599536392	1	80	1	3	1	n/a	119489.4791	n/a
119490.6789	1.59931103	1	81	1	2	1	n/a	119491.0785	n/a
119492.2783	1.599517163	1	82	1	1	2	n/a	119492.6781	n/a
119493.8777	1.599755045	1	83	5	1	1	n/a	119494.2777	n/a
119495.4775	1.599452316	1	84	5	2	1	n/a	119495.8772	n/a
119497.0771	1.599469314	1	85	5	3	2	n/a	119497.4769	n/a
119498.6768	1.599360586	1	86	5	4	2	n/a	119499.0769	n/a
119500.2761	1.599733644	1	87	5	5	1	n/a	119500.676	n/a
119501.8756	1.599803051	1	88	5	6	1	n/a	119502.2756	n/a
119503.4751	1.6001997	1	89	7	7	3	n/a	119503.875	n/a
119505.0748	1.599729717	1	90	7	7	3	n/a	119505.4748	n/a
119506.6744	1.599601144	1	91	7	7	3	n/a	119507.0744	n/a
119508.2743	1.599305592	1	92	7	7	3	n/a	119508.674	n/a
119509.8735	1.602173694	1	93	7	7	3	n/a	119510.2735	n/a
119511.4733	1.599531746	1	94	7	7	3	n/a	119511.8728	n/a
119513.0728	1.59949979	1	95	7	7	3	n/a	119513.4727	n/a
119514.6724	1.599587489	1	96	7	7	3	n/a	119515.0724	n/a
119516.2719	1.599718074	1	97	7	7	3	n/a	119516.6718	n/a
119517.8715	1.599638865	1	98	7	7	3	n/a	119518.2714	n/a
119519.4714	1.599287529	1	99	4	6	2	n/a	119519.8709	n/a
119521.0707	1.599449061	1	100	4	5	2	n/a	119521.4705	n/a
119522.6705	1.599550004	1	101	4	4	2	n/a	119523.0699	n/a
119524.2697	1.59969363	1	102	4	3	1	n/a	119524.6697	n/a
119525.8691	1.599854281	1	103	4	2	1	n/a	119526.2692	n/a
119527.4689	1.599516574	1	104	4	1	2	n/a	119527.8689	n/a
119529.0683	1.599759179	1	105	2	1	1	n/a	119529.4683	n/a
119530.6681	1.599550993	1	106	2	2	1	n/a	119531.0681	n/a
119532.2676	1.599718823	1	107	2	3	2	n/a	119532.6676	n/a
119533.8676	1.599278146	1	108	2	4	2	n/a	119534.2672	n/a
119535.4669	1.59966003	1	109	2	5	2	n/a	119535.8667	n/a
119537.0665	1.599635685	1	110	2	6	1	n/a	119537.4662	n/a
119538.666	1.599736373	1	111	7	7	3	n/a	119539.0659	n/a
119540.2656	1.599487526	1	112	7	7	3	n/a	119540.6656	n/a
119541.8652	1.599551709	1	113	7	7	3	n/a	119542.265	n/a
119543.4648	1.599719818	1	114	7	7	3	n/a	119543.8646	n/a
119545.0643	1.599635912	1	115	7	7	3	n/a	119545.4642	n/a
119546.6639	1.599574834	1	116	7	7	3	n/a	119547.0637	n/a
119548.2635	1.599477717	1	117	7	7	3	n/a	119548.6633	n/a
119549.863	1.599710548	1	118	7	7	3	n/a	119550.2629	n/a
119551.4626	1.599458938	1	119	7	7	3	n/a	119551.8627	n/a
119553.0623	1.599489783	1	120	7	7	3	n/a	119553.4622	n/a
119554.6618	1.599568722	1	121	2	6	2	n/a	119555.0615	n/a
119556.2614	1.599584754	1	122	2	5	2	n/a	119556.6611	n/a
119557.8609	1.599513215	1	123	2	4	1	n/a	119558.2609	n/a
119559.4608	1.59940179	1	124	2	3	1	n/a	119559.8604	n/a
119561.0601	1.599618576	1	125	2	2	2	n/a	119561.4603	n/a
119562.6596	1.599623137	1	126	2	1	2	n/a	119563.0594	n/a
119564.2592	1.599665116	1	127	4	1	2	n/a	119564.6592	n/a
119565.8588	1.599990856	1	128	4	2	2	n/a	119566.2589	n/a
119567.4583	1.59962438	1	129	4	3	2	n/a	119567.8583	n/a
119569.058	1.599433497	1	130	4	4	2	n/a	119569.4579	n/a
119570.6576	1.599450762	1	131	4	5	1	n/a	119571.0575	n/a
119572.2572	1.599842876	1	132	4	6	1	n/a	119572.657	n/a
119573.8571	1.599434674	1	133	7	7	3	n/a	119574.2565	n/a
119575.4563	1.599537111	1	134	7	7	3	n/a	119575.8562	n/a
119577.0559	1.599460442	1	135	7	7	3	n/a	119577.4557	n/a
119578.6555	1.599309787	1	136	7	7	3	n/a	119579.0555	n/a
119580.2548	1.599748753	1	137	7	7	3	n/a	119580.655	n/a
119581.8544	1.59983579	1	138	7	7	3	n/a	119582.2546	n/a
119583.4541	1.599828396	1	139	7	7	3	n/a	119583.8544	n/a
119585.0538	1.599639505	1	140	7	7	3	n/a	119585.4536	n/a
119586.6534	1.599537186	1	141	7	7	3	n/a	119587.0531	n/a
119588.2528	1.599439118	1	142	7	7	3	n/a	119588.653	n/a
